timestamp,acc_x,acc_y,acc_z,gyro_x,gyro_y,gyro_z,mag_x,mag_y,mag_z,jerk,gyro_mag
1780237759783,0.011964113,9.572786,3.0008986,,,,,,,0.0,0.0
1780237759786,0.011964113,9.572786,3.0008986,0.035505496,0.028557109,-0.0037414394,,,,0.0,0.04571813
1780237759786,-0.0071784677,9.520144,2.888436,0.035505496,0.028557109,-0.0037414394,,,,0.0,0.04571813
1780237759787,-0.0071784677,9.520144,2.888436,0.035505496,0.028557109,-0.0037414394,-0.09375,-43.518753,25.66875,0.0,0.04571813
1780237759788,-0.0071784677,9.520144,2.888436,0.060855657,-0.018783553,0.045431767,-0.09375,-43.518753,25.66875,0.0,0.07823221
1780237759795,0.16630118,9.459127,2.652743,0.060855657,-0.018783553,0.045431767,-0.09375,-43.518753,25.66875,17.602102,0.07823221
1780237759827,0.16630118,9.459127,2.652743,0.060855657,-0.018783553,0.045431767,-0.0375,-42.7125,25.725,0.0,0.07823221
1780237759828,0.16630118,9.459127,2.652743,0.057190575,-0.014202199,0.053678203,-0.0375,-42.7125,25.725,0.0,0.07971081
1780237759829,0.34127632,9.420842,2.4107687,0.057190575,-0.014202199,0.053678203,-0.0375,-42.7125,25.725,95.074646,0.07971081
1780237759829,0.34127632,9.420842,2.4107687,0.005879405,0.03191677,0.027106347,-0.0375,-42.7125,25.725,0.0,0.042284768
1780237759830,0.34127632,9.420842,2.4107687,0.005879405,0.03191677,0.027106347,-0.82500005,-42.693752,25.5375,0.0,0.042284768
1780237759833,0.3472584,9.436396,2.3772693,0.005879405,0.03191677,0.027106347,-0.82500005,-42.693752,25.5375,2.3463566,0.042284768
1780237759843,0.3472584,9.436396,2.3772693,-0.064978875,0.08078455,0.0020616094,-0.82500005,-42.693752,25.5375,0.0,0.103694975
1780237759844,0.3472584,9.436396,2.3772693,-0.064978875,0.08078455,0.0020616094,-1.35,-42.73125,24.825,0.0,0.103694975
1780237759852,0.22971097,9.47468,2.6599214,-0.064978875,0.08078455,0.0020616094,-1.35,-42.73125,24.825,13.277649,0.103694975
1780237759862,0.22971097,9.47468,2.6599214,-0.08177718,0.07162184,-0.001603474,-1.35,-42.73125,24.825,0.0,0.10871875
1780237759864,0.22971097,9.47468,2.6599214,-0.08177718,0.07162184,-0.001603474,-0.90000004,-42.393753,25.10625,0.0,0.10871875
1780237759872,0.111266255,9.460323,2.8202405,-0.08177718,0.07162184,-0.001603474,-0.90000004,-42.393753,25.10625,3.5907028,0.10871875
1780237759881,0.111266255,9.460323,2.8202405,-0.060397524,0.039857782,0.013362284,-0.90000004,-42.393753,25.10625,0.0,0.07358705
1780237759883,0.111266255,9.460323,2.8202405,-0.060397524,0.039857782,0.013362284,-0.8625,-42.61875,25.275002,0.0,0.07358705
1780237759890,0.22372891,9.434002,2.9135606,-0.060397524,0.039857782,0.013362284,-0.8625,-42.61875,25.275002,0.5456379,0.07358705
1780237759900,0.22372891,9.434002,2.9135606,-0.02893889,0.018478129,0.011835165,-0.8625,-42.61875,25.275002,0.0,0.03631765
1780237759904,0.22372891,9.434002,2.9135606,-0.02893889,0.018478129,0.011835165,-0.82500005,-42.768753,25.10625,0.0,0.03631765
1780237759909,0.33888352,9.402896,2.9410782,-0.02893889,0.018478129,0.011835165,-0.82500005,-42.768753,25.10625,3.6489487,0.03631765
1780237759919,0.33888352,9.402896,2.9410782,0.0052685575,0.03955236,-0.016263809,-0.82500005,-42.768753,25.10625,0.0,0.043088958
1780237759923,0.33888352,9.402896,2.9410782,0.0052685575,0.03955236,-0.016263809,-0.8625,-42.787502,25.10625,0.0,0.043088958
1780237759928,0.11006984,9.473484,2.888436,0.0052685575,0.03955236,-0.016263809,-0.8625,-42.787502,25.10625,9.339333,0.043088958
1780237759939,0.11006984,9.473484,2.888436,0.026953636,0.052991,-0.0098499125,-0.8625,-42.787502,25.10625,0.0,0.06026247
1780237759943,0.11006984,9.473484,2.888436,0.026953636,0.052991,-0.0098499125,-0.8625,-42.693752,25.143751,0.0,0.06026247
1780237759947,0.0035892338,9.53809,2.786741,0.026953636,0.052991,-0.0098499125,-0.8625,-42.693752,25.143751,8.051395,0.06026247
1780237759958,0.0035892338,9.53809,2.786741,0.01809635,0.010231691,0.024662958,-0.8625,-42.693752,25.143751,0.0,0.03225565
1780237759963,0.0035892338,9.53809,2.786741,0.01809635,0.010231691,0.024662958,-0.45000002,-43.0125,25.518751,0.0,0.03225565
1780237759966,0.11844472,9.568001,2.6862426,0.01809635,0.010231691,0.024662958,-0.45000002,-43.0125,25.518751,0.5947749,0.03225565
1780237759976,0.11844472,9.568001,2.6862426,-0.01641652,-0.0361927,0.051540237,-0.45000002,-43.0125,25.518751,0.0,0.0650831
1780237759983,0.11844472,9.568001,2.6862426,-0.01641652,-0.0361927,0.051540237,0.0,-43.143753,25.63125,0.0,0.0650831
1780237759986,0.25244278,9.542876,2.6802604,-0.01641652,-0.0361927,0.051540237,0.0,-43.143753,25.63125,7.76577,0.0650831
1780237759995,0.25244278,9.542876,2.6802604,-0.038712446,-0.05451812,0.056427017,0.0,-43.143753,25.63125,0.0,0.08749221
1780237760004,0.25244278,9.542876,2.6802604,-0.038712446,-0.05451812,0.056427017,0.375,-43.125,25.931252,0.0,0.08749221
1780237760006,0.3173481,9.503394,2.6838498,-0.038712446,-0.05451812,0.056427017,0.375,-43.125,25.931252,17.573833,0.08749221
1780237760014,0.3173481,9.503394,2.6838498,-0.04512634,0.0013744063,0.050013117,0.375,-43.125,25.931252,0.0,0.067376465
1780237760024,0.3173481,9.503394,2.6838498,-0.04512634,0.0013744063,0.050013117,0.41250002,-43.2,25.968752,0.0,0.067376465
1780237760026,0.34247273,9.483055,2.7831519,-0.04512634,0.0013744063,0.050013117,0.41250002,-43.2,25.968752,4.383564,0.067376465
1780237760033,0.34247273,9.483055,2.7831519,-0.030160584,0.07040015,0.041155834,0.41250002,-43.2,25.968752,0.0,0.08694621
1780237760043,0.33050862,9.419645,2.929114,-0.030160584,0.07040015,0.041155834,0.41250002,-43.2,25.968752,1.8872261,0.08694621
1780237760044,0.33050862,9.419645,2.929114,-0.030160584,0.07040015,0.041155834,0.3375,-43.237503,25.85625,0.0,0.08694621
1780237760053,0.33050862,9.419645,2.929114,0.008322794,0.082006246,0.03077143,0.3375,-43.237503,25.85625,0.0,0.08798394
1780237760062,0.27756742,9.405289,2.902793,0.008322794,0.082006246,0.03077143,0.3375,-43.237503,25.85625,2.5694106,0.08798394
1780237760065,0.27756742,9.405289,2.902793,0.008322794,0.082006246,0.03077143,0.43125,-43.3875,26.118752,0.0,0.08798394
1780237760071,0.27756742,9.405289,2.902793,0.03397838,0.055128966,0.020387027,0.43125,-43.3875,26.118752,0.0,0.0678923
1780237760081,0.25603202,9.405289,2.7376883,0.03397838,0.055128966,0.020387027,0.43125,-43.3875,26.118752,4.798794,0.0678923
1780237760083,0.25603202,9.405289,2.7376883,0.03397838,0.055128966,0.020387027,0.41250002,-43.3125,26.025002,0.0,0.0678923
1780237760091,0.25603202,9.405289,2.7376883,0.030313294,0.025502874,0.008475506,0.41250002,-43.3125,26.025002,0.0,0.040510822
1780237760100,0.2739782,9.39811,2.5486553,0.030313294,0.025502874,0.008475506,0.41250002,-43.3125,26.025002,6.395658,0.040510822
1780237760103,0.2739782,9.39811,2.5486553,0.030313294,0.025502874,0.008475506,0.35625002,-43.425003,25.85625,0.0,0.040510822
1780237760110,0.2739782,9.39811,2.5486553,0.004046863,0.018478129,-0.0092390645,0.35625002,-43.425003,25.85625,0.0,0.02105181
1780237760120,0.32452658,9.410074,2.4729822,0.004046863,0.018478129,-0.0092390645,0.35625002,-43.425003,25.85625,0.6403923,0.02105181
1780237760123,0.32452658,9.410074,2.4729822,0.004046863,0.018478129,-0.0092390645,-0.16875,-43.3125,25.500002,0.0,0.02105181
1780237760129,0.32452658,9.410074,2.4729822,-0.03413109,0.059099473,-0.03978143,-0.16875,-43.3125,25.500002,0.0,0.0789952
1780237760138,0.30059835,9.372986,2.5761726,-0.03413109,0.059099473,-0.03978143,-0.16875,-43.3125,25.500002,1.0880365,0.0789952
1780237760143,0.30059835,9.372986,2.5761726,-0.03413109,0.059099473,-0.03978143,-0.39375,-43.256252,25.331251,0.0,0.0789952
1780237760148,0.30059835,9.372986,2.5761726,-0.051845662,0.10185878,-0.0678804,-0.39375,-43.256252,25.331251,0.0,0.13293207
1780237760157,0.18305093,9.3765745,2.7029922,-0.051845662,0.10185878,-0.0678804,-0.39375,-43.256252,25.331251,3.87711,0.13293207
1780237760164,0.18305093,9.3765745,2.7029922,-0.051845662,0.10185878,-0.0678804,-0.28125,-43.518753,25.35,0.0,0.13293207
1780237760167,0.18305093,9.3765745,2.7029922,-0.05581617,0.109799795,-0.073072605,-0.28125,-43.518753,25.35,0.0,0.14321677
1780237760176,-0.038285162,9.401699,2.9051857,-0.05581617,0.109799795,-0.073072605,-0.28125,-43.518753,25.35,8.920882,0.14321677
1780237760184,-0.038285162,9.401699,2.9051857,-0.05581617,0.109799795,-0.073072605,-0.58125,-43.612503,25.10625,0.0,0.14321677
1780237760186,-0.038285162,9.401699,2.9051857,-0.022524992,0.041079476,-0.041308545,-0.58125,-43.612503,25.10625,0.0,0.062460344
1780237760196,0.016749758,9.475877,2.8429725,-0.022524992,0.041079476,-0.041308545,-0.58125,-43.612503,25.10625,5.2778244,0.062460344
1780237760203,0.016749758,9.475877,2.8429725,-0.022524992,0.041079476,-0.041308545,-0.5625,-43.575,25.125002,0.0,0.062460344
1780237760206,0.016749758,9.475877,2.8429725,-8.39915E-4,-0.033749312,-0.01809635,-0.5625,-43.575,25.125002,0.0,0.038304042
1780237760215,0.13160525,9.518948,2.5546372,-8.39915E-4,-0.033749312,-0.01809635,-0.5625,-43.575,25.125002,4.0571427,0.038304042
1780237760223,0.13160525,9.518948,2.5546372,-8.39915E-4,-0.033749312,-0.01809635,-0.52500004,-43.2,24.956251,0.0,0.038304042
1780237760226,0.13160525,9.518948,2.5546372,-0.02893889,-0.019699825,-0.016263809,-0.52500004,-43.2,24.956251,0.0,0.038601216
1780237760234,0.16271193,9.517751,2.487339,-0.02893889,-0.019699825,-0.016263809,-0.52500004,-43.2,24.956251,2.2400618,0.038601216
1780237760243,0.16271193,9.517751,2.487339,-0.0640626,0.0581832,-0.015958386,-0.52500004,-43.2,24.956251,0.0,0.08799984
1780237760244,0.16271193,9.517751,2.487339,-0.0640626,0.0581832,-0.015958386,-0.20625001,-43.425003,25.275002,0.0,0.08799984
1780237760253,0.08135597,9.499805,2.632404,-0.0640626,0.0581832,-0.015958386,-0.20625001,-43.425003,25.275002,2.152443,0.08799984
1780237760262,0.08135597,9.499805,2.632404,-0.071392775,0.116519116,-6.8720314E-4,-0.20625001,-43.425003,25.275002,0.0,0.13665323
1780237760265,0.08135597,9.499805,2.632404,-0.071392775,0.116519116,-6.8720314E-4,-0.3,-43.350002,25.35,0.0,0.13665323
1780237760272,0.050249275,9.483055,2.7053852,-0.071392775,0.116519116,-6.8720314E-4,-0.3,-43.350002,25.35,0.48896244,0.13665323
1780237760281,0.050249275,9.483055,2.7053852,-0.07780667,0.10521844,0.023135839,-0.3,-43.350002,25.35,0.0,0.13289118
1780237760284,0.050249275,9.483055,2.7053852,-0.07780667,0.10521844,0.023135839,-0.20625001,-43.162502,25.35,0.0,0.13289118
1780237760291,0.09092726,9.504591,2.6838498,-0.07780667,0.10521844,0.023135839,-0.20625001,-43.162502,25.35,2.1611621,0.13289118
1780237760301,0.09092726,9.504591,2.6838498,-0.10346226,0.05971032,0.04421007,-0.20625001,-43.162502,25.35,0.0,0.1273746
1780237760304,0.09092726,9.504591,2.6838498,-0.10346226,0.05971032,0.04421007,-0.41250002,-43.050003,25.44375,0.0,0.1273746
1780237760310,0.0849452,9.498609,2.8513472,-0.10346226,0.05971032,0.04421007,-0.41250002,-43.050003,25.44375,6.840229,0.1273746
1780237760320,0.0849452,9.498609,2.8513472,-0.11018158,0.02183779,0.06436803,-0.41250002,-43.050003,25.44375,0.0,0.12946086
1780237760324,0.0849452,9.498609,2.8513472,-0.11018158,0.02183779,0.06436803,-0.84375006,-42.787502,25.575,0.0,0.12946086
1780237760329,-0.020338992,9.401699,3.0846474,-0.11018158,0.02183779,0.06436803,-0.84375006,-42.787502,25.575,4.5783997,0.12946086
1780237760339,-0.020338992,9.401699,3.0846474,-0.061313793,-0.02275406,0.09429955,-0.84375006,-42.787502,25.575,0.0,0.11475858
1780237760343,-0.020338992,9.401699,3.0846474,-0.061313793,-0.02275406,0.09429955,-0.675,-42.73125,25.556252,0.0,0.11475858
1780237760348,-0.031106694,9.375379,2.9997022,-0.061313793,-0.02275406,0.09429955,-0.675,-42.73125,25.556252,10.239029,0.11475858
1780237760386,-0.031106694,9.375379,2.9997022,-0.013667707,-0.031611346,0.11659547,-0.675,-42.73125,25.556252,0.0,0.12157544
1780237760387,-0.031106694,9.375379,2.9997022,-0.013667707,-0.031611346,0.11659547,-0.39375,-42.787502,25.63125,0.0,0.12157544
1780237760387,0.19262223,9.352647,2.8082764,-0.013667707,-0.031611346,0.11659547,-0.39375,-42.787502,25.63125,0.0,0.12157544
1780237760388,0.19262223,9.352647,2.8082764,-0.009391776,0.018783553,0.10162971,-0.39375,-42.787502,25.63125,0.0,0.103776805
1780237760388,0.19262223,9.352647,2.8082764,-0.009391776,0.018783553,0.10162971,-0.61875004,-42.975002,25.462502,0.0,0.103776805
1780237760389,0.34486556,9.311969,2.6718855,-0.009391776,0.018783553,0.10162971,-0.61875004,-42.975002,25.462502,73.21644,0.103776805
1780237760396,0.34486556,9.311969,2.6718855,-0.04023956,0.0801737,0.061313793,-0.61875004,-42.975002,25.462502,0.0,0.108657375
1780237760403,0.34486556,9.311969,2.6718855,-0.04023956,0.0801737,0.061313793,-0.88125,-43.162502,25.125002,0.0,0.108657375
1780237760405,0.22851457,9.309576,2.7017958,-0.04023956,0.0801737,0.061313793,-0.88125,-43.162502,25.125002,1.2750624,0.108657375
1780237760415,0.22851457,9.309576,2.7017958,-0.0704765,0.119267926,0.048486,-0.88125,-43.162502,25.125002,0.0,0.1467742
1780237760423,0.22851457,9.309576,2.7017958,-0.0704765,0.119267926,0.048486,-1.03125,-43.2,25.462502,0.0,0.1467742
1780237760424,-0.0047856453,9.38136,2.8226335,-0.0704765,0.119267926,0.048486,-1.03125,-43.2,25.462502,100.39901,0.1467742
1780237760434,-0.0047856453,9.38136,2.8226335,-0.07017108,0.09880454,0.07719582,-1.03125,-43.2,25.462502,0.0,0.14368547
1780237760443,-0.020338992,9.389735,2.8345976,-0.07017108,0.09880454,0.07719582,-1.03125,-43.2,25.462502,1.2767581,0.14368547
1780237760444,-0.020338992,9.389735,2.8345976,-0.07017108,0.09880454,0.07719582,-1.2750001,-43.256252,25.5375,0.0,0.14368547
1780237760453,-0.020338992,9.389735,2.8345976,-0.057954133,0.07131642,0.09735378,-1.2750001,-43.256252,25.5375,0.0,0.13387483
1780237760462,0.27756742,9.3155575,2.8058836,-0.057954133,0.07131642,0.09735378,-1.2750001,-43.256252,25.5375,8.374639,0.13387483
1780237760463,0.27756742,9.3155575,2.8058836,-0.057954133,0.07131642,0.09735378,-1.0500001,-43.48125,25.500002,0.0,0.13387483
1780237760472,0.27756742,9.3155575,2.8058836,-0.04512634,0.08689302,0.058870405,-1.0500001,-43.48125,25.500002,0.0,0.114247575
1780237760481,0.45732823,9.238688,2.687439,-0.04512634,0.08689302,0.058870405,-1.0500001,-43.48125,25.500002,11.158414,0.114247575
1780237760484,0.45732823,9.238688,2.687439,-0.04512634,0.08689302,0.058870405,-0.91875005,-43.29375,25.2,0.0,0.114247575
1780237760491,0.45732823,9.238688,2.687439,-0.059786674,0.14797775,-0.0092390645,-0.91875005,-43.29375,25.2,0.0,0.15986626
1780237760501,0.392722,9.313165,2.6371896,-0.059786674,0.14797775,-0.0092390645,-0.91875005,-43.29375,25.2,5.4823875,0.15986626
1780237760503,0.392722,9.313165,2.6371896,-0.059786674,0.14797775,-0.0092390645,-0.99375004,-43.631252,25.3875,0.0,0.15986626
1780237760510,0.392722,9.313165,2.6371896,-0.09704836,0.19043164,-0.057190575,-0.99375004,-43.631252,25.3875,0.0,0.22125405
1780237760520,0.26799613,9.38495,2.6970103,-0.09704836,0.19043164,-0.057190575,-0.99375004,-43.631252,25.3875,8.115482,0.22125405
1780237760524,0.26799613,9.38495,2.6970103,-0.09704836,0.19043164,-0.057190575,-1.1812501,-43.4625,25.312502,0.0,0.22125405
1780237760529,0.26799613,9.38495,2.6970103,-0.12239852,0.22830416,-0.07704311,-1.1812501,-43.4625,25.312502,0.0,0.2702588
1780237760539,0.15314065,9.388538,2.8932216,-0.12239852,0.22830416,-0.07704311,-1.1812501,-43.4625,25.312502,5.6949615,0.2702588
1780237760543,0.15314065,9.388538,2.8932216,-0.12239852,0.22830416,-0.07704311,-1.125,-43.443752,25.44375,0.0,0.2702588
1780237760548,0.15314065,9.388538,2.8932216,-0.10895988,0.26862007,-0.088343784,-1.125,-43.443752,25.44375,0.0,0.30304062
1780237760558,-0.1363909,9.380164,3.1016963,-0.10895988,0.26862007,-0.088343784,-1.125,-43.443752,25.44375,5.5199623,0.30304062
1780237760563,-0.1363909,9.380164,3.1016963,-0.10895988,0.26862007,-0.088343784,-1.2,-43.331253,25.425001,0.0,0.30304062
1780237760567,-0.1363909,9.380164,3.1016963,-0.054594472,0.27197975,-0.05780142,-1.2,-43.331253,25.425001,0.0,0.28336293
1780237760577,-0.28265217,9.41486,3.2273195,-0.054594472,0.27197975,-0.05780142,-1.2,-43.331253,25.425001,7.6042175,0.28336293
1780237760585,-0.28265217,9.41486,3.2273195,-0.054594472,0.27197975,-0.05780142,-1.21875,-43.21875,25.087502,0.0,0.28336293
1780237760587,-0.28265217,9.41486,3.2273195,0.011682454,0.21730891,-0.003436016,-1.21875,-43.21875,25.087502,0.0,0.21764983
1780237760596,-0.21296121,9.483055,3.0619156,0.011682454,0.21730891,-0.003436016,-1.21875,-43.21875,25.087502,1.1931525,0.21764983
1780237760603,-0.21296121,9.483055,3.0619156,0.011682454,0.21730891,-0.003436016,-1.0500001,-43.55625,24.88125,0.0,0.21764983
1780237760606,-0.21296121,9.483055,3.0619156,0.025121093,0.18187977,0.039017867,-1.0500001,-43.55625,24.88125,0.0,0.18770647
1780237760615,-0.2213361,9.479466,3.0080771,0.025121093,0.18187977,0.039017867,-1.0500001,-43.55625,24.88125,2.1826427,0.18770647
1780237760623,-0.2213361,9.479466,3.0080771,0.025121093,0.18187977,0.039017867,-1.3875,-43.425003,24.7875,0.0,0.18770647
1780237760625,-0.2213361,9.479466,3.0080771,0.015958386,0.096972,0.07566871,-1.3875,-43.425003,24.7875,0.0,0.12403223
1780237760634,-0.21296121,9.429216,2.9219356,0.015958386,0.096972,0.07566871,-1.3875,-43.425003,24.7875,8.210076,0.12403223
1780237760644,-0.21296121,9.429216,2.9219356,-0.0066429637,0.020310672,0.11354123,-1.3875,-43.425003,24.7875,0.0,0.115534686
1780237760645,-0.21296121,9.429216,2.9219356,-0.0066429637,0.020310672,0.11354123,-1.575,-43.65,25.031252,0.0,0.115534686
1780237760653,-0.0071784677,9.408877,2.862115,-0.0066429637,0.020310672,0.11354123,-1.575,-43.65,25.031252,4.9118996,0.115534686
1780237760663,-0.0071784677,9.408877,2.862115,-0.039628714,-0.013896775,0.11720632,-1.575,-43.65,25.031252,0.0,0.12450252
1780237760664,-0.0071784677,9.408877,2.862115,-0.039628714,-0.013896775,0.11720632,-1.66875,-43.537502,24.91875,0.0,0.12450252
1780237760672,0.16271193,9.329915,2.748456,-0.039628714,-0.013896775,0.11720632,-1.66875,-43.537502,24.91875,13.360738,0.12450252
1780237760682,0.16271193,9.329915,2.748456,-0.086969376,0.0056503373,0.096132085,-1.66875,-43.537502,24.91875,0.0,0.12975737
1780237760684,0.16271193,9.329915,2.748456,-0.086969376,0.0056503373,0.096132085,-1.9312501,-43.575,25.0125,0.0,0.12975737
1780237760691,0.38434714,9.224331,2.801098,-0.086969376,0.0056503373,0.096132085,-1.9312501,-43.575,25.0125,11.396135,0.12975737
1780237760701,0.38434714,9.224331,2.801098,-0.14072394,0.09483404,0.023441264,-1.9312501,-43.575,25.0125,0.0,0.17130737
1780237760704,0.38434714,9.224331,2.801098,-0.14072394,0.09483404,0.023441264,-2.0812502,-43.66875,24.937502,0.0,0.17130737
1780237760710,0.26799613,9.129815,3.2572298,-0.14072394,0.09483404,0.023441264,-2.0812502,-43.66875,24.937502,8.208275,0.17130737
1780237760720,0.26799613,9.129815,3.2572298,-0.12575819,0.14186928,-0.030924143,-2.0812502,-43.66875,24.937502,0.0,0.19208935
1780237760724,0.26799613,9.129815,3.2572298,-0.12575819,0.14186928,-0.030924143,-2.1937501,-43.48125,25.1625,0.0,0.19208935
1780237760730,-0.11006984,9.172886,3.67388,-0.12575819,0.14186928,-0.030924143,-2.1937501,-43.48125,25.1625,30.785242,0.19208935
1780237760739,-0.11006984,9.172886,3.67388,-0.031993125,0.11774081,-0.014736691,-2.1937501,-43.48125,25.1625,0.0,0.12289682
1780237760743,-0.11006984,9.172886,3.67388,-0.031993125,0.11774081,-0.014736691,-2.30625,-43.66875,24.900002,0.0,0.12289682
1780237760749,-0.25124636,9.237492,3.7133617,-0.031993125,0.11774081,-0.014736691,-2.30625,-43.66875,24.900002,12.869676,0.12289682
1780237760758,-0.25124636,9.237492,3.7133617,0.076126836,0.11132691,0.03077143,-2.30625,-43.66875,24.900002,0.0,0.13833241
1780237760763,-0.25124636,9.237492,3.7133617,0.076126836,0.11132691,0.03077143,-2.49375,-43.3875,24.7875,0.0,0.13833241
1780237760768,-0.19980069,9.159725,3.4689946,0.076126836,0.11132691,0.03077143,-2.49375,-43.3875,24.7875,32.487106,0.13833241
1780237760777,-0.19980069,9.159725,3.4689946,0.13690615,0.10277505,0.06314634,-2.49375,-43.3875,24.7875,0.0,0.18246497
1780237760784,-0.19980069,9.159725,3.4689946,0.13690615,0.10277505,0.06314634,-2.30625,-43.6875,24.937502,0.0,0.18246497
1780237760787,-0.17347965,9.257831,3.1830523,0.13690615,0.10277505,0.06314634,-2.30625,-43.6875,24.937502,1.7878214,0.18246497
1780237760796,-0.17347965,9.257831,3.1830523,0.14423631,0.069483876,0.068033114,-2.30625,-43.6875,24.937502,0.0,0.17395581
1780237760804,-0.17347965,9.257831,3.1830523,0.14423631,0.069483876,0.068033114,-2.15625,-43.96875,24.91875,0.0,0.17395581
1780237760806,-0.2440679,9.560822,2.91715,0.14423631,0.069483876,0.068033114,-2.15625,-43.96875,24.91875,103.82127,0.17395581
1780237760815,-0.2440679,9.560822,2.91715,0.11613733,0.035276428,0.07291989,-2.15625,-43.96875,24.91875,0.0,0.14159667
1780237760823,-0.2440679,9.560822,2.91715,0.11613733,0.035276428,0.07291989,-2.2687502,-44.025,25.10625,0.0,0.14159667
1780237760825,-0.15553348,9.700802,2.5869403,0.11613733,0.035276428,0.07291989,-2.2687502,-44.025,25.10625,21.042345,0.14159667
1780237760834,-0.15553348,9.700802,2.5869403,0.066353284,0.0010689828,0.06467345,-2.2687502,-44.025,25.10625,0.0,0.09266367
1780237760844,-0.15553348,9.700802,2.5869403,0.066353284,0.0010689828,0.06467345,-2.4,-44.11875,24.91875,0.0,0.09266367
1780237760845,0.01794617,9.742677,2.0877378,0.066353284,0.0010689828,0.06467345,-2.4,-44.11875,24.91875,77.14558,0.09266367
1780237760853,0.01794617,9.742677,2.0877378,-0.06284091,0.081395395,0.023746688,-2.4,-44.11875,24.91875,0.0,0.105537176
1780237760863,0.0526421,9.754641,2.1798615,-0.06284091,0.081395395,0.023746688,-2.4,-44.11875,24.91875,3.1506538,0.105537176
1780237760864,0.0526421,9.754641,2.1798615,-0.06284091,0.081395395,0.023746688,-2.41875,-44.15625,25.29375,0.0,0.105537176
1780237760873,0.0526421,9.754641,2.1798615,-0.20211409,0.21486552,-0.018401774,-2.41875,-44.15625,25.29375,0.0,0.29556036
1780237760882,0.11485548,9.740284,3.077469,-0.20211409,0.21486552,-0.018401774,-2.41875,-44.15625,25.29375,24.461853,0.29556036
1780237760886,0.11485548,9.740284,3.077469,-0.20211409,0.21486552,-0.018401774,-2.25,-44.11875,25.237501,0.0,0.29556036
1780237760928,0.11485548,9.740284,3.077469,-0.24090289,0.16508147,-0.060550235,-2.25,-44.11875,25.237501,0.0,0.29824895
1780237760928,0.05383851,9.809675,3.761218,-0.24090289,0.16508147,-0.060550235,-2.25,-44.11875,25.237501,0.0,0.29824895
1780237760929,0.05383851,9.809675,3.761218,-0.24090289,0.16508147,-0.060550235,-2.325,-44.193752,25.575,0.0,0.29824895
1780237760929,0.05383851,9.809675,3.761218,-0.17706935,0.013591352,-0.091703445,-2.325,-44.193752,25.575,0.0,0.19986947
1780237760930,-0.124426775,9.797711,3.8054852,-0.17706935,0.013591352,-0.091703445,-2.325,-44.193752,25.575,5.3739543,0.19986947
1780237760931,-0.124426775,9.797711,3.8054852,-0.17706935,0.013591352,-0.091703445,-2.4750001,-44.362503,25.612501,0.0,0.19986947
1780237760931,-0.124426775,9.797711,3.8054852,-0.070781924,-0.09636115,-0.100866154,-2.4750001,-44.362503,25.612501,0.0,0.1564274
1780237760939,-0.31375888,9.824331,3.5706897,-0.070781924,-0.09636115,-0.100866154,-2.4750001,-44.362503,25.612501,6.715655,0.1564274
1780237760943,-0.31375888,9.824331,3.5706897,-0.070781924,-0.09636115,-0.100866154,-2.71875,-44.325,25.425001,0.0,0.1564274
1780237760949,-0.31375888,9.824331,3.5706897,0.026953636,-0.103080474,-0.08681667,-2.71875,-44.325,25.425001,0.0,0.13743804
1780237760958,-0.5099703,9.824331,3.4283166,0.026953636,-0.103080474,-0.08681667,-2.71875,-44.325,25.425001,4.4434867,0.13743804
1780237760963,-0.5099703,9.824331,3.4283166,0.026953636,-0.103080474,-0.08681667,-2.8500001,-43.912502,25.3875,0.0,0.13743804
1780237760968,-0.5099703,9.824331,3.4283166,0.0962848,-0.11529742,-0.026648212,-2.8500001,-43.912502,25.3875,0.0,0.15255944
1780237760978,-0.5566304,9.709177,3.2297122,0.0962848,-0.11529742,-0.026648212,-2.8500001,-43.912502,25.3875,17.042732,0.15255944
1780237760984,-0.5566304,9.709177,3.2297122,0.0962848,-0.11529742,-0.026648212,-3.075,-43.85625,25.368752,0.0,0.15255944
1780237760987,-0.5566304,9.709177,3.2297122,0.13629529,-0.16905198,0.0640626,-3.075,-43.85625,25.368752,0.0,0.2264045
1780237760997,-0.29940194,9.596714,2.862115,0.13629529,-0.16905198,0.0640626,-3.075,-43.85625,25.368752,22.849464,0.2264045
1780237761004,-0.29940194,9.596714,2.862115,0.13629529,-0.16905198,0.0640626,-2.7375002,-43.96875,25.3875,0.0,0.2264045
1780237761006,-0.29940194,9.596714,2.862115,0.14637427,-0.184934,0.118733436,-2.7375002,-43.96875,25.3875,0.0,0.26405236
1780237761015,0.010767702,9.499805,2.4418755,0.14637427,-0.184934,0.118733436,-2.7375002,-43.96875,25.3875,23.363115,0.26405236
1780237761023,0.010767702,9.499805,2.4418755,0.14637427,-0.184934,0.118733436,-2.5687501,-43.96875,25.29375,0.0,0.26405236
1780237761025,0.010767702,9.499805,2.4418755,0.12102412,-0.114992,0.11659547,-2.5687501,-43.96875,25.29375,0.0,0.20362833
1780237761035,0.1052842,9.418449,2.1762722,0.12102412,-0.114992,0.11659547,-2.5687501,-43.96875,25.29375,14.144325,0.20362833
1780237761044,0.1052842,9.418449,2.1762722,0.12102412,-0.114992,0.11659547,-2.775,-44.362503,25.237501,0.0,0.20362833
1780237761045,0.1052842,9.418449,2.1762722,0.052914646,0.018783553,0.10071344,-2.775,-44.362503,25.237501,0.0,0.11530819
1780237761054,0.021535404,9.38495,2.3389843,0.052914646,0.018783553,0.10071344,-2.775,-44.362503,25.237501,0.5409453,0.11530819
1780237761063,0.021535404,9.38495,2.3389843,-0.008170082,0.052991,0.11018158,-2.775,-44.362503,25.237501,0.0,0.1225348
1780237761064,0.021535404,9.38495,2.3389843,-0.008170082,0.052991,0.11018158,-2.5875,-44.15625,25.218752,0.0,0.1225348
1780237761073,-0.013160525,9.3765745,2.5354948,-0.008170082,0.052991,0.11018158,-2.5875,-44.15625,25.218752,4.5880213,0.1225348
1780237761083,-0.013160525,9.3765745,2.5354948,-0.057343286,-0.040163208,0.13736428,-2.5875,-44.15625,25.218752,0.0,0.15417613
1780237761084,-0.013160525,9.3765745,2.5354948,-0.057343286,-0.040163208,0.13736428,-2.41875,-43.96875,25.593752,0.0,0.15417613
1780237761092,0.13758731,9.292826,2.638386,-0.057343286,-0.040163208,0.13736428,-2.41875,-43.96875,25.593752,6.5320725,0.15417613
1780237761101,0.13758731,9.292826,2.638386,-0.08055548,-0.15561333,0.15385716,-2.41875,-43.96875,25.593752,0.0,0.23318817
1780237761104,0.13758731,9.292826,2.638386,-0.08055548,-0.15561333,0.15385716,-2.34375,-43.987503,25.837502,0.0,0.23318817
1780237761111,0.36520454,9.276076,2.632404,-0.08055548,-0.15561333,0.15385716,-2.34375,-43.987503,25.837502,1.6874585,0.23318817
1780237761120,0.36520454,9.276076,2.632404,-0.07902836,-0.16294351,0.12697987,-2.34375,-43.987503,25.837502,0.0,0.22117856
1780237761124,0.36520454,9.276076,2.632404,-0.07902836,-0.16294351,0.12697987,-2.1750002,-44.41875,25.81875,0.0,0.22117856
1780237761130,0.46929234,9.279665,2.6551359,-0.07902836,-0.16294351,0.12697987,-2.1750002,-44.41875,25.81875,2.3614566,0.22117856
1780237761139,0.46929234,9.279665,2.6551359,-0.06284091,-0.11132691,0.081471756,-2.1750002,-44.41875,25.81875,0.0,0.15159258
1780237761143,0.46929234,9.279665,2.6551359,-0.06284091,-0.11132691,0.081471756,-2.2125,-44.662502,25.63125,0.0,0.15159258
1780237761150,0.3687938,9.35145,2.7185457,-0.06284091,-0.11132691,0.081471756,-2.2125,-44.662502,25.63125,11.732101,0.15159258
1780237761159,0.3687938,9.35145,2.7185457,-0.03321482,-0.113159455,0.059175827,-2.2125,-44.662502,25.63125,0.0,0.1319472
1780237761163,0.3687938,9.35145,2.7185457,-0.03321482,-0.113159455,0.059175827,-2.3625002,-44.625,25.518751,0.0,0.1319472
1780237761168,0.26799613,9.449555,2.7424738,-0.03321482,-0.113159455,0.059175827,-2.3625002,-44.625,25.518751,19.510841,0.1319472
1780237761179,0.26799613,9.449555,2.7424738,0.007406523,-0.1693574,0.057037864,-2.3625002,-44.625,25.518751,0.0,0.17885777
1780237761183,0.26799613,9.449555,2.7424738,0.007406523,-0.1693574,0.057037864,-2.6437502,-44.568752,25.25625,0.0,0.17885777
1780237761187,0.34486556,9.400503,2.5124638,0.007406523,-0.1693574,0.057037864,-2.6437502,-44.568752,25.25625,26.637314,0.17885777
1780237761197,0.34486556,9.400503,2.5124638,0.02481567,-0.18340689,0.044820916,-2.6437502,-44.568752,25.25625,0.0,0.19042799
1780237761204,0.34486556,9.400503,2.5124638,0.02481567,-0.18340689,0.044820916,-2.5125,-44.550003,25.237501,0.0,0.19042799
1780237761206,0.37357944,9.396914,2.12363,0.02481567,-0.18340689,0.044820916,-2.5125,-44.550003,25.237501,47.722813,0.19042799
1780237761216,0.37357944,9.396914,2.12363,-0.008475506,-0.09544489,0.02741177,-2.5125,-44.550003,25.237501,0.0,0.09966426
1780237761223,0.37357944,9.396914,2.12363,-0.008475506,-0.09544489,0.02741177,-2.53125,-44.568752,25.275002,0.0,0.09966426
1780237761226,0.24526432,9.423235,1.9645073,-0.008475506,-0.09544489,0.02741177,-2.53125,-44.568752,25.275002,4.0572486,0.09966426
1780237761235,0.24526432,9.423235,1.9645073,-0.059175827,0.045049984,0.019470757,-2.53125,-44.568752,25.275002,0.0,0.07687906
1780237761245,0.24526432,9.423235,1.9645073,-0.059175827,0.045049984,0.019470757,-2.5687501,-44.775,25.06875,0.0,0.07687906
1780237761246,0.14237295,9.514162,2.132005,-0.059175827,0.045049984,0.019470757,-2.5687501,-44.775,25.06875,122.19714,0.07687906
1780237761254,0.14237295,9.514162,2.132005,-0.083609715,0.078035735,0.021608721,-2.5687501,-44.775,25.06875,0.0,0.116392
1780237761263,0.14237295,9.514162,2.132005,-0.083609715,0.078035735,0.021608721,-2.5687501,-44.737503,24.975,0.0,0.116392
1780237761264,0.15194423,9.4483595,2.1954148,-0.083609715,0.078035735,0.021608721,-2.5687501,-44.737503,24.975,49.89433,0.116392
1780237761273,0.15194423,9.4483595,2.1954148,-0.08910734,-0.019699825,0.03657448,-2.5687501,-44.737503,24.975,0.0,0.098315276
1780237761282,0.25722843,9.35504,1.9067806,-0.08910734,-0.019699825,0.03657448,-2.5687501,-44.737503,24.975,16.712084,0.098315276
1780237761284,0.25722843,9.35504,1.9067806,-0.08910734,-0.019699825,0.03657448,-2.8875,-44.30625,24.956251,0.0,0.098315276
1780237761293,0.25722843,9.35504,1.9067806,-0.12697987,-0.09941539,0.04421007,-2.8875,-44.30625,24.956251,0.0,0.16721794
1780237761302,0.36400816,9.386146,1.7775681,-0.12697987,-0.09941539,0.04421007,-2.8875,-44.30625,24.956251,1.007186,0.16721794
1780237761303,0.36400816,9.386146,1.7775681,-0.12697987,-0.09941539,0.04421007,-2.8500001,-44.34375,24.768751,0.0,0.16721794
1780237761311,0.36400816,9.386146,1.7775681,-0.18714833,-0.10735641,0.020997874,-2.8500001,-44.34375,24.768751,0.0,0.21677363
1780237761321,0.37597227,9.390931,1.9908284,-0.18714833,-0.10735641,0.020997874,-2.8500001,-44.34375,24.768751,4.7079086,0.21677363
1780237761324,0.37597227,9.390931,1.9908284,-0.18714833,-0.10735641,0.020997874,-2.79375,-44.456253,24.937502,0.0,0.21677363
1780237761330,0.37597227,9.390931,1.9908284,-0.22624256,-0.11071607,-0.012904149,-2.79375,-44.456253,24.937502,0.0,0.25221077
1780237761340,0.19740787,9.393325,2.3748765,-0.22624256,-0.11071607,-0.012904149,-2.79375,-44.456253,24.937502,8.390617,0.25221077
1780237761344,0.19740787,9.393325,2.3748765,-0.22624256,-0.11071607,-0.012904149,-2.775,-44.381252,24.91875,0.0,0.25221077
1780237761349,0.19740787,9.393325,2.3748765,-0.21952324,-0.14828317,-0.0012980504,-2.775,-44.381252,24.91875,0.0,0.26491514
1780237761359,0.08973085,9.423235,2.7029922,-0.21952324,-0.14828317,-0.0012980504,-2.775,-44.381252,24.91875,11.275005,0.26491514
1780237761363,0.08973085,9.423235,2.7029922,-0.21952324,-0.14828317,-0.0012980504,-2.86875,-44.34375,24.7875,0.0,0.26491514
1780237761368,0.08973085,9.423235,2.7029922,-0.15874393,-0.1885991,0.051845662,-2.86875,-44.34375,24.7875,0.0,0.25190717
1780237761378,0.19381863,9.510572,2.693421,-0.15874393,-0.1885991,0.051845662,-2.86875,-44.34375,24.7875,8.285904,0.25190717
1780237761384,0.19381863,9.510572,2.693421,-0.15874393,-0.1885991,0.051845662,-2.9250002,-44.53125,24.6,0.0,0.25190717
1780237761388,0.19381863,9.510572,2.693421,-0.096437514,-0.18920994,0.10437853,-2.9250002,-44.53125,24.6,0.0,0.23663363
1780237761397,0.4429713,9.52493,2.487339,-0.096437514,-0.18920994,0.10437853,-2.9250002,-44.53125,24.6,3.5780802,0.23663363
1780237761404,0.4429713,9.52493,2.487339,-0.096437514,-0.18920994,0.10437853,-3.2250001,-44.381252,24.431252,0.0,0.23663363
1780237761407,0.4429713,9.52493,2.487339,-0.061313793,-0.14339639,0.124536484,-3.2250001,-44.381252,24.431252,0.0,0.19957766
1780237761416,0.6475576,9.4890375,2.4741786,-0.061313793,-0.14339639,0.124536484,-3.2250001,-44.381252,24.431252,2.9617946,0.19957766
1780237761423,0.6475576,9.4890375,2.4741786,-0.061313793,-0.14339639,0.124536484,-3.3000002,-44.15625,24.468752,0.0,0.19957766
1780237761426,0.6475576,9.4890375,2.4741786,-0.013667707,-0.07650862,0.10101887,-3.3000002,-44.15625,24.468752,0.0,0.1274566
1780237761435,0.6774679,9.49143,2.4825535,-0.013667707,-0.07650862,0.10101887,-3.3000002,-44.15625,24.468752,0.7151498,0.1274566
1780237761444,0.6774679,9.49143,2.4825535,-0.013667707,-0.07650862,0.10101887,-3.15,-44.456253,24.4125,0.0,0.1274566
1780237761445,0.6774679,9.49143,2.4825535,0.05444176,-0.016340164,0.059786674,-3.15,-44.456253,24.4125,0.0,0.082494564
1780237761454,0.64277196,9.445967,2.3557339,0.05444176,-0.016340164,0.059786674,-3.15,-44.456253,24.4125,8.622911,0.082494564
1780237761464,0.64277196,9.445967,2.3557339,0.085900396,0.016340164,0.01305686,-3.15,-44.456253,24.4125,0.0,0.088410184
1780237761465,0.64277196,9.445967,2.3557339,0.085900396,0.016340164,0.01305686,-2.9625,-44.362503,24.525002,0.0,0.088410184
1780237761473,0.52911294,9.47827,2.3234308,0.085900396,0.016340164,0.01305686,-2.9625,-44.362503,24.525002,2.092719,0.088410184
1780237761483,0.52911294,9.47827,2.3234308,0.088343784,0.06001574,-0.020845164,-2.9625,-44.362503,24.525002,0.0,0.10881652
1780237761484,0.52911294,9.47827,2.3234308,0.088343784,0.06001574,-0.020845164,-3.0,-44.100002,24.206251,0.0,0.10881652
1780237761492,0.55423754,9.372986,2.6862426,0.088343784,0.06001574,-0.020845164,-3.0,-44.100002,24.206251,0.8952617,0.10881652
1780237761502,0.55423754,9.372986,2.6862426,0.13934954,0.14767233,-0.0742943,-3.0,-44.100002,24.206251,0.0,0.21620604
1780237761503,0.55423754,9.372986,2.6862426,0.13934954,0.14767233,-0.0742943,-3.0187502,-44.381252,24.187502,0.0,0.21620604
1780237761512,0.51475596,9.194421,3.205784,0.13934954,0.14767233,-0.0742943,-3.0187502,-44.381252,24.187502,1.6882155,0.21620604
1780237761521,0.51475596,9.194421,3.205784,0.25571594,0.1757713,-0.1414875,-3.0187502,-44.381252,24.187502,0.0,0.34103504
1780237761523,0.51475596,9.194421,3.205784,0.25571594,0.1757713,-0.1414875,-3.15,-44.0625,24.337502,0.0,0.34103504
1780237761531,0.19381863,9.140582,3.431906,0.25571594,0.1757713,-0.1414875,-3.15,-44.0625,24.337502,1.8342732,0.34103504
1780237761540,0.19381863,9.140582,3.431906,0.4062898,0.11193776,-0.15034479,-3.15,-44.0625,24.337502,0.0,0.44744274
1780237761544,0.19381863,9.140582,3.431906,0.4062898,0.11193776,-0.15034479,-3.05625,-43.78125,24.31875,0.0,0.44744274
1780237761550,-0.13878371,9.131011,3.2799616,0.4062898,0.11193776,-0.15034479,-3.05625,-43.78125,24.31875,10.3844,0.44744274
1780237761590,-0.13878371,9.131011,3.2799616,0.52387786,-0.005955761,-0.07734854,-3.05625,-43.78125,24.31875,0.0,0.52959067
1780237761591,-0.13878371,9.131011,3.2799616,0.52387786,-0.005955761,-0.07734854,-2.9625,-43.85625,24.375002,0.0,0.52959067
1780237761591,-0.096909314,9.432806,3.0296125,0.52387786,-0.005955761,-0.07734854,-2.9625,-43.85625,24.375002,0.0,0.52959067
1780237761592,-0.096909314,9.432806,3.0296125,0.60237175,-0.106745556,0.025273805,-2.9625,-43.85625,24.375002,0.0,0.61227864
1780237761592,-0.096909314,9.432806,3.0296125,0.60237175,-0.106745556,0.025273805,-2.8312502,-44.0625,24.4125,0.0,0.61227864
1780237761593,0.5315057,10.075578,2.6084757,0.60237175,-0.106745556,0.025273805,-2.8312502,-44.0625,24.4125,513.4554,0.61227864
1780237761597,0.5315057,10.075578,2.6084757,0.6402443,-0.039857782,0.053983625,-2.8312502,-44.0625,24.4125,0.0,0.6437512
1780237761604,0.5315057,10.075578,2.6084757,0.6402443,-0.039857782,0.053983625,-2.90625,-43.818752,24.54375,0.0,0.6437512
1780237761607,1.1730813,10.610673,1.9414765,0.6402443,-0.039857782,0.053983625,-2.90625,-43.818752,24.54375,143.03683,0.6437512
1780237761616,1.1730813,10.610673,1.9414765,0.5803813,0.13087402,-0.016263809,-2.90625,-43.818752,24.54375,0.0,0.5951764
1780237761623,1.1730813,10.610673,1.9414765,0.5803813,0.13087402,-0.016263809,-3.15,-43.5,24.675001,0.0,0.5951764
1780237761626,1.2017952,10.9579315,1.1479566,0.5803813,0.13087402,-0.016263809,-3.15,-43.5,24.675001,77.60588,0.5951764
1780237761635,1.2017952,10.9579315,1.1479566,0.34551048,0.3101577,-0.10819632,-3.15,-43.5,24.675001,0.0,0.47674072
1780237761644,1.2017952,10.9579315,1.1479566,0.34551048,0.3101577,-0.10819632,-3.075,-43.443752,25.237501,0.0,0.47674072
1780237761645,0.62841505,10.903793,1.0833504,0.34551048,0.3101577,-0.10819632,-3.075,-43.443752,25.237501,107.76328,0.47674072
1780237761656,0.62841505,10.903793,1.0833504,-0.0029778804,0.40880954,-0.1338519,-3.075,-43.443752,25.237501,0.0,0.4301749
1780237761664,0.62841505,10.903793,1.0833504,-0.0029778804,0.40880954,-0.1338519,-3.16875,-43.0125,25.5375,0.0,0.4301749
1780237761664,0.15792629,10.426426,2.0111675,-0.0029778804,0.40880954,-0.1338519,-3.16875,-43.0125,25.5375,0.0,0.4301749
1780237761673,0.15792629,10.426426,2.0111675,-0.338333,0.42072105,-0.117053606,-3.16875,-43.0125,25.5375,0.0,0.55242825
1780237761683,0.16749759,9.824331,3.4271202,-0.338333,0.42072105,-0.117053606,-3.16875,-43.0125,25.5375,21.351528,0.55242825
1780237761684,0.16749759,9.824331,3.4271202,-0.338333,0.42072105,-0.117053606,-2.9625,-42.956253,25.687502,0.0,0.55242825
1780237761692,0.16749759,9.824331,3.4271202,-0.54663193,0.34589225,-0.13201937,-2.9625,-42.956253,25.687502,0.0,0.66020983
1780237761702,0.111266255,9.441181,4.490132,-0.54663193,0.34589225,-0.13201937,-2.9625,-42.956253,25.687502,4.8840523,0.66020983
1780237761704,0.111266255,9.441181,4.490132,-0.54663193,0.34589225,-0.13201937,-2.9437501,-42.956253,25.9125,0.0,0.66020983
1780237761712,0.111266255,9.441181,4.490132,-0.66147125,0.29885703,-0.16683766,-2.9437501,-42.956253,25.9125,0.0,0.74477816
1780237761721,-0.16510476,9.285647,5.532804,-0.66147125,0.29885703,-0.16683766,-2.9437501,-42.956253,25.9125,39.463364,0.74477816
1780237761723,-0.16510476,9.285647,5.532804,-0.66147125,0.29885703,-0.16683766,-2.9250002,-42.825,26.00625,0.0,0.74477816
1780237761731,-0.16510476,9.285647,5.532804,-0.61779565,0.21394925,-0.14454173,-2.9250002,-42.825,26.00625,0.0,0.6695805
1780237761740,-0.23090738,9.104691,6.261718,-0.61779565,0.21394925,-0.14454173,-2.9250002,-42.825,26.00625,26.912266,0.6695805
1780237761744,-0.23090738,9.104691,6.261718,-0.61779565,0.21394925,-0.14454173,-3.0937502,-42.5625,25.687502,0.0,0.6695805
1780237761750,-0.23090738,9.104691,6.261718,-0.36887538,0.10796725,-0.06482617,-3.0937502,-42.5625,25.687502,0.0,0.38977993
1780237761759,-0.05383851,8.857033,5.979365,-0.36887538,0.10796725,-0.06482617,-3.0937502,-42.5625,25.687502,40.65948,0.38977993
1780237761763,-0.05383851,8.857033,5.979365,-0.36887538,0.10796725,-0.06482617,-3.3375,-42.675003,25.425001,0.0,0.38977993
1780237761769,-0.05383851,8.857033,5.979365,-0.06986566,0.047798797,0.0035887277,-3.3375,-42.675003,25.425001,0.0,0.08472788
1780237761778,0.11246266,8.64138,4.8696933,-0.06986566,0.047798797,0.0035887277,-3.3375,-42.675003,25.425001,85.20985,0.08472788
1780237761783,0.11246266,8.64138,4.8696933,-0.06986566,0.047798797,0.0035887277,-3.2625,-42.862503,25.3875,0.0,0.08472788
1780237761788,0.11246266,8.64138,4.8696933,0.10056073,0.10827268,0.021914145,-3.2625,-42.862503,25.3875,0.0,0.14938428
1780237761798,0.38554356,8.506186,3.856931,0.10056073,0.10827268,0.021914145,-3.2625,-42.862503,25.3875,57.19652,0.14938428
1780237761803,0.38554356,8.506186,3.856931,0.10056073,0.10827268,0.021914145,-3.6750002,-42.975002,25.181252,0.0,0.14938428
1780237761807,0.38554356,8.506186,3.856931,0.15034479,0.17668757,-0.037948888,-3.6750002,-42.975002,25.181252,0.0,0.23507908
1780237761817,0.56141603,8.449954,3.114857,0.15034479,0.17668757,-0.037948888,-3.6750002,-42.975002,25.181252,32.44524,0.23507908
1780237761823,0.56141603,8.449954,3.114857,0.15034479,0.17668757,-0.037948888,-3.7125,-43.3875,24.69375,0.0,0.23507908
1780237761826,0.56141603,8.449954,3.114857,0.10972344,0.21669807,-0.13721156,-3.7125,-43.3875,24.69375,0.0,0.27897006
1780237761836,0.31136605,8.299206,2.80708,0.10972344,0.21669807,-0.13721156,-3.7125,-43.3875,24.69375,25.664997,0.27897006
1780237761844,0.31136605,8.299206,2.80708,0.10972344,0.21669807,-0.13721156,-4.1625004,-43.5,24.300001,0.0,0.27897006
1780237761845,0.31136605,8.299206,2.80708,0.037338037,0.16141638,-0.1750841,-4.1625004,-43.5,24.300001,0.0,0.24104734
1780237761855,-0.0849452,8.118249,2.646761,0.037338037,0.16141638,-0.1750841,-4.1625004,-43.5,24.300001,22.737694,0.24104734
1780237761863,-0.0849452,8.118249,2.646761,0.037338037,0.16141638,-0.1750841,-4.2375,-43.7625,24.112501,0.0,0.24104734
1780237761865,-0.0849452,8.118249,2.646761,-0.06467345,0.027946262,-0.12102412,-4.2375,-43.7625,24.112501,0.0,0.14003745
1780237761874,-0.18424734,8.022536,2.6359932,-0.06467345,0.027946262,-0.12102412,-4.2375,-43.7625,24.112501,10.302862,0.14003745
1780237761884,-0.18424734,8.022536,2.6359932,-0.15660596,-0.100331664,-0.046195325,-4.2375,-43.7625,24.112501,0.0,0.19163996
1780237761885,-0.18424734,8.022536,2.6359932,-0.15660596,-0.100331664,-0.046195325,-4.33125,-44.100002,23.94375,0.0,0.19163996
1780237761893,-0.16630118,8.149654,2.734099,-0.15660596,-0.100331664,-0.046195325,-4.33125,-44.100002,23.94375,18.894434,0.19163996
1780237761903,-0.16630118,8.149654,2.734099,-0.2216612,-0.11346488,-0.028786177,-4.33125,-44.100002,23.94375,0.0,0.2506723
1780237761904,-0.16630118,8.149654,2.734099,-0.2216612,-0.11346488,-0.028786177,-4.21875,-44.268753,24.281252,0.0,0.2506723
1780237761912,-0.37716866,8.360223,2.847758,-0.2216612,-0.11346488,-0.028786177,-4.21875,-44.268753,24.281252,30.290007,0.2506723
1780237761921,-0.37716866,8.360223,2.847758,-0.24090289,-0.003206948,-0.037338037,-4.21875,-44.268753,24.281252,0.0,0.24380036
1780237761923,-0.37716866,8.360223,2.847758,-0.24090289,-0.003206948,-0.037338037,-4.125,-44.41875,24.35625,0.0,0.24380036
1780237761931,-0.581755,8.551649,2.9793632,-0.24090289,-0.003206948,-0.037338037,-4.125,-44.41875,24.35625,29.308914,0.24380036
1780237761941,-0.581755,8.551649,2.9793632,-0.2192178,0.010842538,-0.044362783,-4.125,-44.41875,24.35625,0.0,0.22392423
1780237761943,-0.581755,8.551649,2.9793632,-0.2192178,0.010842538,-0.044362783,-4.21875,-44.25,24.075,0.0,0.22392423
1780237761950,-0.51475596,8.955139,2.778366,-0.2192178,0.010842538,-0.044362783,-4.21875,-44.25,24.075,45.128822,0.22392423
1780237761960,-0.51475596,8.955139,2.778366,-0.2308239,-0.16508147,-0.03825431,-4.21875,-44.25,24.075,0.0,0.28634763
1780237761963,-0.51475596,8.955139,2.778366,-0.2308239,-0.16508147,-0.03825431,-4.2937503,-44.287502,23.587502,0.0,0.28634763
1780237761969,-0.19142582,9.493823,2.4861426,-0.2308239,-0.16508147,-0.03825431,-4.2937503,-44.287502,23.587502,70.90966,0.28634763
1780237761979,-0.19142582,9.493823,2.4861426,-0.31145576,-0.31473905,-0.03642177,-4.2937503,-44.287502,23.587502,0.0,0.4442881
1780237761983,-0.19142582,9.493823,2.4861426,-0.31145576,-0.31473905,-0.03642177,-4.2562504,-44.4375,23.71875,0.0,0.4442881
1780237761988,-0.08135597,9.739087,2.5438695,-0.31145576,-0.31473905,-0.03642177,-4.2562504,-44.4375,23.71875,50.07038,0.4442881
1780237761998,-0.08135597,9.739087,2.5438695,-0.37223506,-0.3101577,-0.024510246,-4.2562504,-44.4375,23.71875,0.0,0.48513657
1780237762003,-0.08135597,9.739087,2.5438695,-0.37223506,-0.3101577,-0.024510246,-4.14375,-44.5125,23.625,0.0,0.48513657
1780237762007,-0.062213387,9.965508,2.8178477,-0.37223506,-0.3101577,-0.024510246,-4.14375,-44.5125,23.625,72.56388,0.48513657
1780237762017,-0.062213387,9.965508,2.8178477,-0.3575747,-0.17485502,-0.0046577104,-4.14375,-44.5125,23.625,0.0,0.39806488
1780237762023,-0.062213387,9.965508,2.8178477,-0.3575747,-0.17485502,-0.0046577104,-4.40625,-44.79375,23.306252,0.0,0.39806488
1780237762026,-0.10887343,10.383355,3.187838,-0.3575747,-0.17485502,-0.0046577104,-4.40625,-44.79375,23.306252,168.60548,0.39806488
1780237762036,-0.10887343,10.383355,3.187838,-0.30534726,-0.04199575,0.01733279,-4.40625,-44.79375,23.306252,0.0,0.30870864
1780237762043,-0.10887343,10.383355,3.187838,-0.30534726,-0.04199575,0.01733279,-4.2937503,-44.68125,23.212502,0.0,0.30870864
1780237762045,-0.20338993,10.598709,3.8198423,-0.30534726,-0.04199575,0.01733279,-4.2937503,-44.68125,23.212502,202.8222,0.30870864
1780237762055,-0.20338993,10.598709,3.8198423,-0.21830153,-0.04566083,0.05856498,-4.2937503,-44.68125,23.212502,0.0,0.23058692
1780237762063,-0.20338993,10.598709,3.8198423,-0.21830153,-0.04566083,0.05856498,-4.4812503,-44.79375,22.6875,0.0,0.23058692
1780237762064,-0.13040884,10.541281,4.4231324,-0.21830153,-0.04566083,0.05856498,-4.4812503,-44.79375,22.6875,164.51358,0.23058692
1780237762105,-0.13040884,10.541281,4.4231324,-0.093383275,-0.09422319,0.086663954,-4.4812503,-44.79375,22.6875,0.0,0.15845847
1780237762107,-0.13040884,10.541281,4.4231324,-0.093383275,-0.09422319,0.086663954,-4.40625,-44.86875,22.3125,0.0,0.15845847
1780237762109,0.14237295,10.406087,4.6600223,-0.093383275,-0.09422319,0.086663954,-4.40625,-44.86875,22.3125,14.822959,0.15845847
1780237762110,0.14237295,10.406087,4.6600223,0.022372281,-0.1537808,0.06711684,-4.40625,-44.86875,22.3125,0.0,0.16927412
1780237762111,0.57457656,10.288539,4.5272202,0.022372281,-0.1537808,0.06711684,-4.40625,-44.86875,22.3125,147.53436,0.16927412
1780237762111,0.57457656,10.288539,4.5272202,0.022372281,-0.1537808,0.06711684,-4.5,-45.05625,22.1625,0.0,0.16927412
1780237762113,0.57457656,10.288539,4.5272202,0.060855657,-0.2170035,-0.0031305922,-4.5,-45.05625,22.1625,0.0,0.22539683
1780237762122,0.6966105,10.148559,4.5152564,0.060855657,-0.2170035,-0.0031305922,-4.5,-45.05625,22.1625,13.967091,0.22539683
1780237762124,0.6966105,10.148559,4.5152564,0.060855657,-0.2170035,-0.0031305922,-4.275,-45.225002,22.2,0.0,0.22539683
1780237762131,0.6966105,10.148559,4.5152564,0.04833329,-0.2661767,-0.057190575,-4.275,-45.225002,22.2,0.0,0.27650842
1780237762141,0.7265208,9.982258,4.7751765,0.04833329,-0.2661767,-0.057190575,-4.275,-45.225002,22.2,4.00753,0.27650842
1780237762144,0.7265208,9.982258,4.7751765,0.04833329,-0.2661767,-0.057190575,-4.0875,-45.15,21.993752,0.0,0.27650842
1780237762150,0.7265208,9.982258,4.7751765,0.06024481,-0.2777828,-0.09261972,-4.0875,-45.15,21.993752,0.0,0.29895005
1780237762160,0.7181459,9.853045,5.037191,0.06024481,-0.2777828,-0.09261972,-4.0875,-45.15,21.993752,0.018501282,0.29895005
1780237762163,0.7181459,9.853045,5.037191,0.06024481,-0.2777828,-0.09261972,-3.9562502,-44.925003,21.993752,0.0,0.29895005
1780237762169,0.7181459,9.853045,5.037191,0.12957597,-0.2625116,-0.10392039,-3.9562502,-44.925003,21.993752,0.0,0.31064725
1780237762179,0.4621139,9.757033,4.874479,0.12957597,-0.2625116,-0.10392039,-3.9562502,-44.925003,21.993752,17.257786,0.31064725
1780237762183,0.4621139,9.757033,4.874479,0.12957597,-0.2625116,-0.10392039,-3.7125,-44.90625,22.181252,0.0,0.31064725
1780237762189,0.4621139,9.757033,4.874479,0.20562646,-0.23502348,-0.06513159,-3.7125,-44.90625,22.181252,0.0,0.31899905
1780237762198,0.285045,9.697213,4.4135613,0.20562646,-0.23502348,-0.06513159,-3.7125,-44.90625,22.181252,28.722023,0.31899905
1780237762203,0.285045,9.697213,4.4135613,0.20562646,-0.23502348,-0.06513159,-3.54375,-45.09375,22.275002,0.0,0.31899905
1780237762208,0.285045,9.697213,4.4135613,0.23342001,-0.17852011,-0.014736691,-3.54375,-45.09375,22.275002,0.0,0.29423034
1780237762217,0.1591227,9.643374,4.0100718,0.23342001,-0.17852011,-0.014736691,-3.54375,-45.09375,22.275002,23.67221,0.29423034
1780237762223,0.1591227,9.643374,4.0100718,0.23342001,-0.17852011,-0.014736691,-3.35625,-45.05625,22.181252,0.0,0.29423034
1780237762227,0.1591227,9.643374,4.0100718,0.2178434,-0.12751436,0.03260397,-3.35625,-45.05625,22.181252,0.0,0.25451657
1780237762236,0.050249275,9.642178,3.7301114,0.2178434,-0.12751436,0.03260397,-3.35625,-45.05625,22.181252,11.829801,0.25451657
1780237762243,0.050249275,9.642178,3.7301114,0.2178434,-0.12751436,0.03260397,-3.2062502,-45.15,22.59375,0.0,0.25451657
1780237762247,0.050249275,9.642178,3.7301114,0.1802763,-0.11712996,0.096132085,-3.2062502,-45.15,22.59375,0.0,0.23550022
1780237762255,-0.07058827,9.709177,3.4713874,0.1802763,-0.11712996,0.096132085,-3.2062502,-45.15,22.59375,3.415346,0.23550022
1780237762263,-0.07058827,9.709177,3.4713874,0.1802763,-0.11712996,0.096132085,-2.8125,-45.05625,22.743752,0.0,0.23550022
1780237762265,-0.07058827,9.709177,3.4713874,0.13537902,-0.08903099,0.17340426,-2.8125,-45.05625,22.743752,0.0,0.23732474
1780237762275,-0.13280165,9.637392,3.3792639,0.13537902,-0.08903099,0.17340426,-2.8125,-45.05625,22.743752,9.779644,0.23732474
1780237762284,-0.13280165,9.637392,3.3792639,0.116748184,0.0013744063,0.23754323,-2.8125,-45.05625,22.743752,0.0,0.26468626
1780237762285,-0.13280165,9.637392,3.3792639,0.116748184,0.0013744063,0.23754323,-2.7375002,-45.112503,22.81875,0.0,0.26468626
1780237762293,0.0634098,9.542876,3.3804603,0.116748184,0.0013744063,0.23754323,-2.7375002,-45.112503,22.81875,11.175989,0.26468626
1780237762303,0.0634098,9.542876,3.3804603,0.13354649,0.09849912,0.2396812,-2.7375002,-45.112503,22.81875,0.0,0.29151982
1780237762304,0.0634098,9.542876,3.3804603,0.13354649,0.09849912,0.2396812,-2.6625001,-44.79375,22.987501,0.0,0.29151982
1780237762312,0.25004998,9.41127,3.1950164,0.13354649,0.09849912,0.2396812,-2.6625001,-44.79375,22.987501,22.77088,0.29151982
1780237762322,0.25004998,9.41127,3.1950164,0.12438377,0.17943639,0.20028155,-2.6625001,-44.79375,22.987501,0.0,0.2962793
1780237762324,0.25004998,9.41127,3.1950164,0.12438377,0.17943639,0.20028155,-2.71875,-45.300003,23.23125,0.0,0.2962793
1780237762332,0.19740787,9.297611,3.0092735,0.12438377,0.17943639,0.20028155,-2.71875,-45.300003,23.23125,20.936726,0.2962793
1780237762342,0.19740787,9.297611,3.0092735,0.075821415,0.1809635,0.17493138,-2.71875,-45.300003,23.23125,0.0,0.26286435
1780237762344,0.19740787,9.297611,3.0092735,0.075821415,0.1809635,0.17493138,-2.86875,-45.2625,23.306252,0.0,0.26286435
1780237762351,0.07298109,9.238688,2.8573294,0.075821415,0.1809635,0.17493138,-2.86875,-45.2625,23.306252,14.820099,0.26286435
1780237762360,0.07298109,9.238688,2.8573294,-0.013667707,0.0917798,0.18378867,-2.86875,-45.2625,23.306252,0.0,0.20588495
1780237762363,0.07298109,9.238688,2.8573294,-0.013667707,0.0917798,0.18378867,-2.9437501,-45.0,23.550001,0.0,0.20588495
1780237762370,0.19980069,9.114262,2.8202405,-0.013667707,0.0917798,0.18378867,-2.9437501,-45.0,23.550001,18.287521,0.20588495
1780237762379,0.19980069,9.114262,2.8202405,-0.11109784,0.01175881,0.20119782,-2.9437501,-45.0,23.550001,0.0,0.23013379
1780237762384,0.19980069,9.114262,2.8202405,-0.11109784,0.01175881,0.20119782,-3.2625,-45.075,23.868752,0.0,0.23013379
1780237762389,0.6643074,8.8187475,2.9949167,-0.11109784,0.01175881,0.20119782,-3.2625,-45.075,23.868752,41.126442,0.23013379
1780237762398,0.6643074,8.8187475,2.9949167,-0.17065546,0.09300149,0.17401512,-3.2625,-45.075,23.868752,0.0,0.2608713
1780237762404,0.6643074,8.8187475,2.9949167,-0.17065546,0.09300149,0.17401512,-3.4875002,-45.037502,23.737501,0.0,0.2608713
1780237762408,1.1922239,8.627023,3.5587256,-0.17065546,0.09300149,0.17401512,-3.4875002,-45.037502,23.737501,17.741919,0.2608713
1780237762418,1.1922239,8.627023,3.5587256,-0.14041851,0.21822518,0.10957073,-3.4875002,-45.037502,23.737501,0.0,0.28168306
1780237762424,1.1922239,8.627023,3.5587256,-0.14041851,0.21822518,0.10957073,-3.73125,-45.1875,24.0375,0.0,0.28168306
1780237762427,1.3274183,8.653344,4.0016966,-0.14041851,0.21822518,0.10957073,-3.73125,-45.1875,24.0375,72.58161,0.28168306
1780237762437,1.3274183,8.653344,4.0016966,-0.04421007,0.31382278,0.07597413,-3.73125,-45.1875,24.0375,0.0,0.3259008
1780237762444,1.3274183,8.653344,4.0016966,-0.04421007,0.31382278,0.07597413,-4.0687504,-44.8125,24.075,0.0,0.3259008
1780237762446,1.2460624,8.750552,4.025625,-0.04421007,0.31382278,0.07597413,-4.0687504,-44.8125,24.075,43.295856,0.3259008
1780237762455,1.2460624,8.750552,4.025625,0.033672955,0.32237464,0.058870405,-4.0687504,-44.8125,24.075,0.0,0.32943133
1780237762464,1.2460624,8.750552,4.025625,0.033672955,0.32237464,0.058870405,-4.55625,-45.075,24.206251,0.0,0.32943133
1780237762465,1.2867404,8.809176,3.7851462,0.033672955,0.32237464,0.058870405,-4.55625,-45.075,24.206251,38.474083,0.32943133
1780237762475,1.2867404,8.809176,3.7851462,0.023288552,0.30038413,0.03413109,-4.55625,-45.075,24.206251,0.0,0.30321264
1780237762485,1.2867404,8.809176,3.7851462,0.023288552,0.30038413,0.03413109,-4.8,-44.756252,23.90625,0.0,0.30321264
1780237762485,1.1431711,8.7780695,3.8330028,0.023288552,0.30038413,0.03413109,-4.8,-44.756252,23.90625,0.0,0.30321264
1780237762494,1.1431711,8.7780695,3.8330028,-0.0045049987,0.22799873,0.04146126,-4.8,-44.756252,23.90625,0.0,0.23178169
1780237762504,1.2173486,8.772088,3.7600217,-0.0045049987,0.22799873,0.04146126,-4.8,-44.756252,23.90625,2.5119781,0.23178169
1780237762505,1.2173486,8.772088,3.7600217,-0.0045049987,0.22799873,0.04146126,-5.1937504,-44.7,23.6625,0.0,0.23178169
1780237762513,1.2173486,8.772088,3.7600217,-0.04421007,0.10735641,0.051540237,-5.1937504,-44.7,23.6625,0.0,0.12702884
1780237762522,1.7153547,8.672486,3.4247274,-0.04421007,0.10735641,0.051540237,-5.1937504,-44.7,23.6625,15.623835,0.12702884
1780237762524,1.7153547,8.672486,3.4247274,-0.04421007,0.10735641,0.051540237,-5.45625,-44.925003,23.2875,0.0,0.12702884
1780237762532,1.7153547,8.672486,3.4247274,-0.1621036,-0.055434387,5.344914E-4,-5.45625,-44.925003,23.2875,0.0,0.17132084
1780237762541,1.8960128,8.600702,3.4654055,-0.1621036,-0.055434387,5.344914E-4,-5.45625,-44.925003,23.2875,1.8020207,0.17132084
1780237762543,1.8960128,8.600702,3.4654055,-0.1621036,-0.055434387,5.344914E-4,-5.64375,-44.943752,23.04375,0.0,0.17132084
1780237762551,1.8960128,8.600702,3.4654055,-0.31053948,-0.17668757,-0.076126836,-5.64375,-44.943752,23.04375,0.0,0.36530614
1780237762560,1.4533406,8.860622,4.237689,-0.31053948,-0.17668757,-0.076126836,-5.64375,-44.943752,23.04375,51.592194,0.36530614
1780237762563,1.4533406,8.860622,4.237689,-0.31053948,-0.17668757,-0.076126836,-5.775,-44.756252,22.81875,0.0,0.36530614
1780237762570,1.4533406,8.860622,4.237689,-0.34291437,-0.26342788,-0.10636378,-5.775,-44.756252,22.81875,0.0,0.4453064
1780237762580,1.11685,9.050852,5.1209397,-0.34291437,-0.26342788,-0.10636378,-5.775,-44.756252,22.81875,53.014565,0.4453064
1780237762586,1.11685,9.050852,5.1209397,-0.34291437,-0.26342788,-0.10636378,-6.0375004,-44.775,22.706251,0.0,0.4453064
1780237762589,1.11685,9.050852,5.1209397,-0.19814359,-0.29274854,-0.10300412,-6.0375004,-44.775,22.706251,0.0,0.3682016
1780237762599,1.0941181,8.999406,5.3183475,-0.19814359,-0.29274854,-0.10300412,-6.0375004,-44.775,22.706251,5.159569,0.3682016
1780237762628,1.0941181,8.999406,5.3183475,-0.19814359,-0.29274854,-0.10300412,-6.01875,-44.8875,22.743752,0.0,0.3682016
1780237762629,1.0941181,8.999406,5.3183475,0.04344651,-0.22219568,-0.09994988,-6.01875,-44.8875,22.743752,0.0,0.24748436
1780237762630,1.076172,8.961121,4.5918264,0.04344651,-0.22219568,-0.09994988,-6.01875,-44.8875,22.743752,384.0942,0.24748436
1780237762631,1.076172,8.961121,4.5918264,0.04344651,-0.22219568,-0.09994988,-6.01875,-44.7,22.59375,0.0,0.24748436
1780237762631,1.076172,8.961121,4.5918264,0.14729054,-0.19287503,-0.09994988,-6.01875,-44.7,22.59375,0.0,0.26246002
1780237762637,0.811466,9.180064,3.5288153,0.14729054,-0.19287503,-0.09994988,-6.01875,-44.7,22.59375,43.011982,0.26246002
1780237762644,0.811466,9.180064,3.5288153,0.14729054,-0.19287503,-0.09994988,-5.9625,-44.831253,22.63125,0.0,0.26246002
1780237762646,0.811466,9.180064,3.5288153,-0.0020616094,-0.2738123,-0.044057358,-5.9625,-44.831253,22.63125,0.0,0.27734178
1780237762656,0.5554339,9.338289,3.3852458,-0.0020616094,-0.2738123,-0.044057358,-5.9625,-44.831253,22.63125,8.010578,0.27734178
1780237762663,0.5554339,9.338289,3.3852458,-0.0020616094,-0.2738123,-0.044057358,-5.7937503,-44.60625,22.25625,0.0,0.27734178
1780237762665,0.5554339,9.338289,3.3852458,-0.18928629,-0.37551835,0.05581617,-5.7937503,-44.60625,22.25625,0.0,0.4242155
1780237762675,0.42382872,9.254242,4.0902314,-0.18928629,-0.37551835,0.05581617,-5.7937503,-44.60625,22.25625,17.82589,0.4242155
1780237762684,0.42382872,9.254242,4.0902314,-0.18928629,-0.37551835,0.05581617,-5.625,-44.381252,22.275002,0.0,0.4242155
1780237762684,0.42382872,9.254242,4.0902314,-0.19875443,-0.38742986,0.15416257,-5.625,-44.381252,22.275002,0.0,0.46192133
1780237762694,0.6343971,9.103494,4.6767716,-0.19875443,-0.38742986,0.15416257,-5.625,-44.381252,22.275002,12.74538,0.46192133
1780237762704,0.6343971,9.103494,4.6767716,-0.051234815,-0.31809872,0.18409409,-5.625,-44.381252,22.275002,0.0,0.37108278
1780237762704,0.6343971,9.103494,4.6767716,-0.051234815,-0.31809872,0.18409409,-5.45625,-44.325,22.21875,0.0,0.37108278
1780237762713,1.2699906,8.909675,4.705486,-0.051234815,-0.31809872,0.18409409,-5.45625,-44.325,22.21875,10.950407,0.37108278
1780237762723,1.2699906,8.909675,4.705486,0.12652174,-0.2945811,0.11140327,-5.45625,-44.325,22.21875,0.0,0.339406
1780237762724,1.2699906,8.909675,4.705486,0.12652174,-0.2945811,0.11140327,-5.25,-44.5125,22.3875,0.0,0.339406
1780237762732,1.602892,8.76132,4.0758743,0.12652174,-0.2945811,0.11140327,-5.25,-44.5125,22.3875,45.073982,0.339406
1780237762742,1.602892,8.76132,4.0758743,0.19096613,-0.2765611,-0.002519745,-5.25,-44.5125,22.3875,0.0,0.3360959
1780237762743,1.602892,8.76132,4.0758743,0.19096613,-0.2765611,-0.002519745,-4.9500003,-44.568752,22.21875,0.0,0.3360959
1780237762751,1.2879368,8.819944,3.3732817,0.19096613,-0.2765611,-0.002519745,-4.9500003,-44.568752,22.21875,33.074856,0.3360959
1780237762761,1.2879368,8.819944,3.3732817,0.13476817,-0.2518218,-0.07337803,-4.9500003,-44.568752,22.21875,0.0,0.2948915
1780237762763,1.2879368,8.819944,3.3732817,0.13476817,-0.2518218,-0.07337803,-4.7250004,-44.90625,21.88125,0.0,0.2948915
1780237762770,1.0319048,8.96471,2.949453,0.13476817,-0.2518218,-0.07337803,-4.7250004,-44.90625,21.88125,5.2498407,0.2948915
1780237762780,1.0319048,8.96471,2.949453,0.026648212,-0.22983128,-0.11155598,-4.7250004,-44.90625,21.88125,0.0,0.2568604
1780237762783,1.0319048,8.96471,2.949453,0.026648212,-0.22983128,-0.11155598,-4.5750003,-44.86875,21.900002,0.0,0.2568604
1780237762789,1.1371889,8.913264,2.8788648,0.026648212,-0.22983128,-0.11155598,-4.5750003,-44.86875,21.900002,9.709676,0.2568604
1780237762799,1.1371889,8.913264,2.8788648,-0.05764871,-0.18310146,-0.1582858,-4.5750003,-44.86875,21.900002,0.0,0.24880496
1780237762804,1.1371889,8.913264,2.8788648,-0.05764871,-0.18310146,-0.1582858,-4.5,-44.90625,22.06875,0.0,0.24880496
1780237762808,1.2915261,8.723035,3.1016963,-0.05764871,-0.18310146,-0.1582858,-4.5,-44.90625,22.06875,21.927355,0.24880496
1780237762818,1.2915261,8.723035,3.1016963,-0.06742226,-0.11102149,-0.22517358,-4.5,-44.90625,22.06875,0.0,0.2599513
1780237762823,1.2915261,8.723035,3.1016963,-0.06742226,-0.11102149,-0.22517358,-4.275,-44.98125,22.6875,0.0,0.2599513
1780237762827,1.1036894,8.733803,3.2979078,-0.06742226,-0.11102149,-0.22517358,-4.275,-44.98125,22.6875,13.251065,0.2599513
1780237762837,1.1036894,8.733803,3.2979078,-0.04146126,-0.103996746,-0.27556846,-4.275,-44.98125,22.6875,0.0,0.29744297
1780237762844,1.1036894,8.733803,3.2979078,-0.04146126,-0.103996746,-0.27556846,-4.3125,-45.15,22.78125,0.0,0.29744297
1780237762846,0.7576275,8.8187475,3.2775688,-0.04146126,-0.103996746,-0.27556846,-4.3125,-45.15,22.78125,18.92662,0.29744297
1780237762856,0.7576275,8.8187475,3.2775688,-0.034741938,-0.1757713,-0.27923355,-4.3125,-45.15,22.78125,0.0,0.3317739
1780237762863,0.7576275,8.8187475,3.2775688,-0.034741938,-0.1757713,-0.27923355,-4.0125003,-45.487503,22.987501,0.0,0.3317739
1780237762866,0.5051847,8.82832,3.1136606,-0.034741938,-0.1757713,-0.27923355,-4.0125003,-45.487503,22.987501,21.216074,0.3317739
1780237762875,0.5051847,8.82832,3.1136606,-0.051234815,-0.17913096,-0.25724304,-4.0125003,-45.487503,22.987501,0.0,0.31762695
1780237762884,0.5051847,8.82832,3.1136606,-0.051234815,-0.17913096,-0.25724304,-3.8625002,-45.5625,22.893751,0.0,0.31762695
1780237762885,0.46809593,8.834301,2.9279177,-0.051234815,-0.17913096,-0.25724304,-3.8625002,-45.5625,22.893751,56.309696,0.31762695
1780237762894,0.46809593,8.834301,2.9279177,-0.08483142,-0.08322794,-0.24899662,-3.8625002,-45.5625,22.893751,0.0,0.2759032
1780237762904,0.46809593,8.834301,2.9279177,-0.08483142,-0.08322794,-0.24899662,-3.9375002,-45.600002,23.025002,0.0,0.2759032
1780237762905,0.46929234,8.88455,2.926721,-0.08483142,-0.08322794,-0.24899662,-3.9375002,-45.600002,23.025002,47.33753,0.2759032
1780237762913,0.46929234,8.88455,2.926721,-0.11140327,0.017867282,-0.24166645,-3.9375002,-45.600002,23.025002,0.0,0.26670694
1780237762923,0.22492532,8.98146,3.1112676,-0.11140327,0.017867282,-0.24166645,-3.9375002,-45.600002,23.025002,14.178562,0.26670694
1780237762924,0.22492532,8.98146,3.1112676,-0.11140327,0.017867282,-0.24166645,-3.6750002,-45.43125,23.34375,0.0,0.26670694
1780237762932,0.22492532,8.98146,3.1112676,-0.10834903,0.051158458,-0.19768545,-3.6750002,-45.43125,23.34375,0.0,0.23116279
1780237762942,-0.0634098,9.077172,3.2620156,-0.10834903,0.051158458,-0.19768545,-3.6750002,-45.43125,23.34375,13.797188,0.23116279
1780237762945,-0.0634098,9.077172,3.2620156,-0.10834903,0.051158458,-0.19768545,-3.4687502,-45.581253,23.175001,0.0,0.23116279
1780237762952,-0.0634098,9.077172,3.2620156,-0.09918632,-0.048104223,-0.11644276,-3.4687502,-45.581253,23.175001,0.0,0.16034606
1780237762961,-0.078963146,9.142975,3.1806595,-0.09918632,-0.048104223,-0.11644276,-3.4687502,-45.581253,23.175001,3.892051,0.16034606
1780237762963,-0.078963146,9.142975,3.1806595,-0.09918632,-0.048104223,-0.11644276,-3.2062502,-45.80625,22.85625,0.0,0.16034606
1780237762970,-0.078963146,9.142975,3.1806595,-0.11231954,-0.18676655,-0.047111593,-3.2062502,-45.80625,22.85625,0.0,0.22297291
1780237762980,0.22731815,9.132208,2.91715,-0.11231954,-0.18676655,-0.047111593,-3.2062502,-45.80625,22.85625,9.123611,0.22297291
1780237762983,0.22731815,9.132208,2.91715,-0.11231954,-0.18676655,-0.047111593,-3.15,-45.7125,22.612501,0.0,0.22297291
1780237762990,0.22731815,9.132208,2.91715,-0.16576867,-0.2377723,-0.04191939,-3.15,-45.7125,22.612501,0.0,0.29286885
1780237762999,0.5195416,9.102298,2.8549366,-0.16576867,-0.2377723,-0.04191939,-3.15,-45.7125,22.612501,3.9831798,0.29286885
1780237763003,0.5195416,9.102298,2.8549366,-0.16576867,-0.2377723,-0.04191939,-2.71875,-45.6375,22.63125,0.0,0.29286885
1780237763008,0.5195416,9.102298,2.8549366,-0.20913883,-0.1937913,-0.082235314,-2.71875,-45.6375,22.63125,0.0,0.2967436
1780237763018,0.5673981,9.032906,3.042773,-0.20913883,-0.1937913,-0.082235314,-2.71875,-45.6375,22.63125,0.5162239,0.2967436
1780237763023,0.5673981,9.032906,3.042773,-0.20913883,-0.1937913,-0.082235314,-2.4,-45.693752,22.29375,0.0,0.2967436
1780237763028,0.5673981,9.032906,3.042773,-0.20089239,-0.15469708,-0.10728005,-2.4,-45.693752,22.29375,0.0,0.27531427
1780237763038,0.6200402,8.95155,3.3529427,-0.20089239,-0.15469708,-0.10728005,-2.4,-45.693752,22.29375,3.0486107,0.27531427
1780237763043,0.6200402,8.95155,3.3529427,-0.20089239,-0.15469708,-0.10728005,-2.1937501,-45.43125,22.25625,0.0,0.27531427
1780237763046,0.6200402,8.95155,3.3529427,-0.12300937,-0.15927842,-0.11766446,-2.1937501,-45.43125,22.25625,0.0,0.23312196
1780237763056,0.7073782,8.944371,3.5730824,-0.12300937,-0.15927842,-0.11766446,-2.1937501,-45.43125,22.25625,7.8608513,0.23312196
1780237763063,0.7073782,8.944371,3.5730824,-0.12300937,-0.15927842,-0.11766446,-2.0625,-45.43125,22.03125,0.0,0.23312196
1780237763066,0.7073782,8.944371,3.5730824,0.0012980504,-0.16172181,-0.13415733,-2.0625,-45.43125,22.03125,0.0,0.2101281
1780237763075,0.75284183,9.019745,3.3601213,0.0012980504,-0.16172181,-0.13415733,-2.0625,-45.43125,22.03125,0.3227658,0.2101281
1780237763084,0.75284183,9.019745,3.3601213,0.0012980504,-0.16172181,-0.13415733,-2.025,-45.43125,21.975,0.0,0.2101281
1780237763085,0.75284183,9.019745,3.3601213,0.10911259,-0.09269607,-0.15523157,-2.025,-45.43125,21.975,0.0,0.21117519
1780237763095,0.7217351,9.159725,2.8836503,0.10911259,-0.09269607,-0.15523157,-2.025,-45.43125,21.975,2.4686813,0.21117519
1780237763104,0.7217351,9.159725,2.8836503,0.10911259,-0.09269607,-0.15523157,-2.11875,-45.3375,21.993752,0.0,0.21117519
1780237763105,0.7217351,9.159725,2.8836503,0.1543153,0.030389652,-0.16928105,-2.11875,-45.3375,21.993752,0.0,0.23106885
1780237763113,0.5075775,9.363414,2.4646072,0.1543153,0.030389652,-0.16928105,-2.11875,-45.3375,21.993752,8.205056,0.23106885
1780237763123,0.5075775,9.363414,2.4646072,0.1259109,0.15225367,-0.15400986,-2.11875,-45.3375,21.993752,0.0,0.25050703
1780237763124,0.5075775,9.363414,2.4646072,0.1259109,0.15225367,-0.15400986,-1.85625,-45.112503,22.050001,0.0,0.25050703
1780237763132,0.25962126,9.559626,2.3772693,0.1259109,0.15225367,-0.15400986,-1.85625,-45.112503,22.050001,19.819855,0.25050703
1780237763190,0.25962126,9.559626,2.3772693,0.08162446,0.184934,-0.1026987,-1.85625,-45.112503,22.050001,0.0,0.2267381
1780237763191,0.25962126,9.559626,2.3772693,0.08162446,0.184934,-0.1026987,-1.48125,-45.15,22.087502,0.0,0.2267381
1780237763191,0.16271193,9.649357,2.455036,0.08162446,0.184934,-0.1026987,-1.48125,-45.15,22.087502,0.0,0.2267381
1780237763192,0.16271193,9.649357,2.455036,0.07459972,0.15286453,-0.03581092,-1.48125,-45.15,22.087502,0.0,0.17382492
1780237763192,0.16271193,9.649357,2.455036,0.07459972,0.15286453,-0.03581092,-1.48125,-45.318752,21.65625,0.0,0.17382492
1780237763193,0.12562318,9.617053,2.4251258,0.07459972,0.15286453,-0.03581092,-1.48125,-45.318752,21.65625,39.193153,0.17382492
1780237763193,0.12562318,9.617053,2.4251258,0.09078717,0.16263808,0.026800923,-1.48125,-45.318752,21.65625,0.0,0.18818009
1780237763194,0.12562318,9.617053,2.4251258,0.09078717,0.16263808,0.026800923,-1.5937501,-44.86875,21.825,0.0,0.18818009
1780237763194,0.014356935,9.597911,2.3688943,0.09078717,0.16263808,0.026800923,-1.5937501,-44.86875,21.825,0.0,0.18818009
1780237763199,0.014356935,9.597911,2.3688943,0.0782648,0.1977618,0.09399412,-1.5937501,-44.86875,21.825,0.0,0.23252958
1780237763203,0.014356935,9.597911,2.3688943,0.0782648,0.1977618,0.09399412,-1.575,-44.90625,21.7875,0.0,0.23252958
1780237763209,0.08973085,9.546465,2.3712873,0.0782648,0.1977618,0.09399412,-1.575,-44.90625,21.7875,8.16075,0.23252958
1780237763219,0.08973085,9.546465,2.3712873,0.023593975,0.19470756,0.14530529,-1.575,-44.90625,21.7875,0.0,0.24409288
1780237763223,0.08973085,9.546465,2.3712873,0.023593975,0.19470756,0.14530529,-1.40625,-44.7,21.993752,0.0,0.24409288
1780237763228,0.4226323,9.517751,2.507678,0.023593975,0.19470756,0.14530529,-1.40625,-44.7,21.993752,2.9317856,0.24409288
1780237763237,0.4226323,9.517751,2.507678,-0.051540237,0.15530792,0.1272853,-1.40625,-44.7,21.993752,0.0,0.20731255
1780237763244,0.4226323,9.517751,2.507678,-0.051540237,0.15530792,0.1272853,-1.3687501,-44.643753,22.050001,0.0,0.20731255
1780237763247,0.68225354,9.619446,2.71376,-0.051540237,0.15530792,0.1272853,-1.3687501,-44.643753,22.050001,55.51211,0.20731255
1780237763256,0.68225354,9.619446,2.71376,-0.10712734,0.15927842,0.06681142,-1.3687501,-44.643753,22.050001,0.0,0.20324776
1780237763263,0.68225354,9.619446,2.71376,-0.10712734,0.15927842,0.06681142,-1.1625,-44.68125,22.237501,0.0,0.20324776
1780237763266,0.6343971,9.721141,3.0140593,-0.10712734,0.15927842,0.06681142,-1.1625,-44.68125,22.237501,59.754055,0.20324776
1780237763276,0.6343971,9.721141,3.0140593,-0.115373775,0.1861557,0.011224318,-1.1625,-44.68125,22.237501,0.0,0.2192967
1780237763283,0.6343971,9.721141,3.0140593,-0.115373775,0.1861557,0.011224318,-1.35,-44.5125,22.3875,0.0,0.2192967
1780237763285,0.19621146,9.838689,3.185445,-0.115373775,0.1861557,0.011224318,-1.35,-44.5125,22.3875,72.97086,0.2192967
1780237763294,0.19621146,9.838689,3.185445,-0.118428014,0.2377723,0.011529742,-1.35,-44.5125,22.3875,0.0,0.26588306
1780237763303,0.19621146,9.838689,3.185445,-0.118428014,0.2377723,0.011529742,-1.5,-44.625,22.5,0.0,0.26588306
1780237763304,-0.21415763,9.920045,3.6846478,-0.118428014,0.2377723,0.011529742,-1.5,-44.625,22.5,241.03926,0.26588306
1780237763314,-0.21415763,9.920045,3.6846478,-0.08941277,0.24907297,0.06161922,-1.5,-44.625,22.5,0.0,0.27171478
1780237763323,-0.35084763,9.837492,4.139284,-0.08941277,0.24907297,0.06161922,-1.5,-44.625,22.5,10.46806,0.27171478
1780237763325,-0.35084763,9.837492,4.139284,-0.08941277,0.24907297,0.06161922,-1.81875,-44.4375,22.875,0.0,0.27171478
1780237763334,-0.35084763,9.837492,4.139284,-0.019470757,0.2441862,0.124841906,-1.81875,-44.4375,22.875,0.0,0.27493912
1780237763342,-0.36640096,9.791729,4.074678,-0.019470757,0.2441862,0.124841906,-1.81875,-44.4375,22.875,8.324146,0.27493912
1780237763343,-0.36640096,9.791729,4.074678,-0.019470757,0.2441862,0.124841906,-1.9875001,-44.362503,22.931252,0.0,0.27493912
1780237763352,-0.36640096,9.791729,4.074678,0.022372281,0.26495498,0.17737478,-1.9875001,-44.362503,22.931252,0.0,0.31963024
1780237763361,-0.11246266,9.78814,3.6149569,0.022372281,0.26495498,0.17737478,-1.9875001,-44.362503,22.931252,19.675255,0.31963024
1780237763363,-0.11246266,9.78814,3.6149569,0.022372281,0.26495498,0.17737478,-2.0625,-44.475002,23.04375,0.0,0.31963024
1780237763371,-0.11246266,9.78814,3.6149569,-0.053067356,0.2600682,0.16851749,-2.0625,-44.475002,23.04375,0.0,0.3144038
1780237763380,0.38793638,9.7043915,3.417549,-0.053067356,0.2600682,0.16851749,-2.0625,-44.475002,23.04375,15.451538,0.3144038
1780237763384,0.38793638,9.7043915,3.417549,-0.053067356,0.2600682,0.16851749,-2.34375,-44.625,22.837502,0.0,0.3144038
1780237763390,0.38793638,9.7043915,3.417549,-0.2216612,0.23716144,0.07933379,-2.34375,-44.625,22.837502,0.0,0.33417523
1780237763400,0.5937191,9.323933,4.08066,-0.2216612,0.23716144,0.07933379,-2.34375,-44.625,22.837502,10.0792885,0.33417523
1780237763404,0.5937191,9.323933,4.08066,-0.2216612,0.23716144,0.07933379,-2.5687501,-44.7,22.800001,0.0,0.33417523
1780237763409,0.5937191,9.323933,4.08066,-0.32031304,0.2793099,-0.053830914,-2.5687501,-44.7,22.800001,0.0,0.42838326
1780237763419,0.30897322,8.915657,5.4023952,-0.32031304,0.2793099,-0.053830914,-2.5687501,-44.7,22.800001,23.420238,0.42838326
1780237763423,0.30897322,8.915657,5.4023952,-0.32031304,0.2793099,-0.053830914,-2.8500001,-45.075,22.63125,0.0,0.42838326
1780237763428,0.30897322,8.915657,5.4023952,-0.18837002,0.31443363,-0.15614784,-2.8500001,-45.075,22.63125,0.0,0.39841425
1780237763438,-0.23808585,8.763713,6.0655065,-0.18837002,0.31443363,-0.15614784,-2.8500001,-45.075,22.63125,23.13633,0.39841425
1780237763444,-0.23808585,8.763713,6.0655065,-0.18837002,0.31443363,-0.15614784,-3.05625,-45.206253,22.368752,0.0,0.39841425
1780237763447,-0.23808585,8.763713,6.0655065,0.0678804,0.26128992,-0.17172444,-3.05625,-45.206253,22.368752,0.0,0.31995228
1780237763457,-0.65353966,8.763713,5.5076795,0.0678804,0.26128992,-0.17172444,-3.05625,-45.206253,22.368752,28.934097,0.31995228
1780237763463,-0.65353966,8.763713,5.5076795,0.0678804,0.26128992,-0.17172444,-3.3750002,-45.09375,22.331251,0.0,0.31995228
1780237763467,-0.65353966,8.763713,5.5076795,0.19249325,0.18157434,-0.12163496,-3.3750002,-45.09375,22.331251,0.0,0.29123524
1780237763476,-0.74566334,8.653344,4.76411,0.19249325,0.18157434,-0.12163496,-3.3750002,-45.09375,22.331251,51.67834,0.29123524
1780237763484,-0.74566334,8.653344,4.76411,0.19249325,0.18157434,-0.12163496,-3.2812502,-45.15,22.181252,0.0,0.29123524
1780237763486,-0.74566334,8.653344,4.76411,0.1674485,0.17118995,-0.07490514,-3.2812502,-45.15,22.181252,0.0,0.2509099
1780237763495,-0.5769694,8.555239,4.6731825,0.1674485,0.17118995,-0.07490514,-3.2812502,-45.15,22.181252,15.642908,0.2509099
1780237763504,-0.5769694,8.555239,4.6731825,0.1674485,0.17118995,-0.07490514,-3.3750002,-45.28125,22.21875,0.0,0.2509099
1780237763505,-0.5769694,8.555239,4.6731825,0.16714308,0.22341739,-0.069712944,-3.3750002,-45.28125,22.21875,0.0,0.287597
1780237763514,-0.48245287,8.56481,4.5822554,0.16714308,0.22341739,-0.069712944,-3.3750002,-45.28125,22.21875,4.434268,0.287597
1780237763524,-0.48245287,8.56481,4.5822554,0.22028679,0.26831466,-0.07337803,-3.3750002,-45.28125,22.21875,0.0,0.35482866
1780237763524,-0.48245287,8.56481,4.5822554,0.22028679,0.26831466,-0.07337803,-3.4875002,-45.05625,22.1625,0.0,0.35482866
1780237763533,-0.36520454,8.574381,3.9119658,0.22028679,0.26831466,-0.07337803,-3.4875002,-45.05625,22.1625,32.647556,0.35482866
1780237763542,-0.36520454,8.574381,3.9119658,0.20287764,0.31870955,-0.07521057,-3.4875002,-45.05625,22.1625,0.0,0.38521647
1780237763544,-0.36520454,8.574381,3.9119658,0.20287764,0.31870955,-0.07521057,-3.3750002,-45.1875,22.181252,0.0,0.38521647
1780237763552,-0.38315073,8.571988,3.3565319,0.20287764,0.31870955,-0.07521057,-3.3750002,-45.1875,22.181252,27.250408,0.38521647
1780237763562,-0.38315073,8.571988,3.3565319,0.10605835,0.34039465,-0.079181075,-3.3750002,-45.1875,22.181252,0.0,0.3652212
1780237763564,-0.38315073,8.571988,3.3565319,0.10605835,0.34039465,-0.079181075,-3.2812502,-44.943752,22.03125,0.0,0.3652212
1780237763571,-0.48963133,8.676076,3.388835,0.10605835,0.34039465,-0.079181075,-3.2812502,-44.943752,22.03125,16.227585,0.3652212
1780237763581,-0.48963133,8.676076,3.388835,0.0092390645,0.2261662,-0.088343784,-3.2812502,-44.943752,22.03125,0.0,0.24298382
1780237763583,-0.48963133,8.676076,3.388835,0.0092390645,0.2261662,-0.088343784,-3.4125001,-44.71875,22.1625,0.0,0.24298382
1780237763590,-0.39391842,8.859426,3.4881372,0.0092390645,0.2261662,-0.088343784,-3.4125001,-44.71875,22.1625,28.890472,0.24298382
1780237763600,-0.39391842,8.859426,3.4881372,-0.06284091,0.08231167,-0.12163496,-3.4125001,-44.71875,22.1625,0.0,0.15974748
1780237763603,-0.39391842,8.859426,3.4881372,-0.06284091,0.08231167,-0.12163496,-3.4125001,-44.49375,22.556252,0.0,0.15974748
1780237763610,-0.1902294,8.961121,3.4737802,-0.06284091,0.08231167,-0.12163496,-3.4125001,-44.49375,22.556252,11.89082,0.15974748
1780237763619,-0.1902294,8.961121,3.4737802,-0.11079242,-0.018783553,-0.16592139,-3.4125001,-44.49375,22.556252,0.0,0.20039384
1780237763623,-0.1902294,8.961121,3.4737802,-0.11079242,-0.018783553,-0.16592139,-3.24375,-44.268753,22.612501,0.0,0.20039384
1780237763628,-0.14476576,8.956335,3.5060835,-0.11079242,-0.018783553,-0.16592139,-3.24375,-44.268753,22.612501,1.2947083,0.20039384
1780237763638,-0.14476576,8.956335,3.5060835,-0.12026055,-0.049936764,-0.2022668,-3.24375,-44.268753,22.612501,0.0,0.24055797
1780237763643,-0.14476576,8.956335,3.5060835,-0.12026055,-0.049936764,-0.2022668,-3.6375,-44.193752,22.5375,0.0,0.24055797
1780237763647,-0.42382872,8.9348,3.5551362,-0.12026055,-0.049936764,-0.2022668,-3.6375,-44.193752,22.5375,1.5556811,0.24055797
1780237763657,-0.42382872,8.9348,3.5551362,-0.11170869,-0.05451812,-0.20806985,-3.6375,-44.193752,22.5375,0.0,0.24237186
1780237763664,-0.42382872,8.9348,3.5551362,-0.11170869,-0.05451812,-0.20806985,-3.525,-44.175003,22.78125,0.0,0.24237186
1780237763666,-0.6667002,8.969496,3.5766716,-0.11170869,-0.05451812,-0.20806985,-3.525,-44.175003,22.78125,26.926992,0.24237186
1780237763693,-0.6667002,8.969496,3.5766716,-0.09552124,-0.07375981,-0.18730104,-3.525,-44.175003,22.78125,0.0,0.22281493
1780237763694,-0.6667002,8.969496,3.5766716,-0.09552124,-0.07375981,-0.18730104,-3.2812502,-44.23125,22.743752,0.0,0.22281493
1780237763695,-0.7612167,9.029316,3.5144582,-0.09552124,-0.07375981,-0.18730104,-3.2812502,-44.23125,22.743752,39.720535,0.22281493
1780237763696,-0.7612167,9.029316,3.5144582,-0.08758023,-0.116519116,-0.16531055,-3.2812502,-44.23125,22.743752,0.0,0.2203964
1780237763704,-0.7612167,9.029316,3.5144582,-0.08758023,-0.116519116,-0.16531055,-3.2625,-43.96875,22.66875,0.0,0.2203964
1780237763705,-0.8572287,9.085547,3.3804603,-0.08758023,-0.116519116,-0.16531055,-3.2625,-43.96875,22.66875,12.85839,0.2203964
1780237763714,-0.8572287,9.085547,3.3804603,-0.08055548,-0.1525591,-0.1311031,-3.2625,-43.96875,22.66875,0.0,0.21668293
1780237763724,-0.81625164,9.105886,3.1339993,-0.08055548,-0.1525591,-0.1311031,-3.2625,-43.96875,22.66875,6.7235947,0.21668293
1780237763725,-0.81625164,9.105886,3.1339993,-0.08055548,-0.1525591,-0.1311031,-3.2812502,-44.04375,22.725,0.0,0.21668293
1780237763733,-0.81625164,9.105886,3.1339993,-0.08055548,-0.12171131,-0.09994988,-3.2812502,-44.04375,22.725,0.0,0.17689773
1780237763743,-0.85842514,9.122637,2.951846,-0.08055548,-0.12171131,-0.09994988,-3.2812502,-44.04375,22.725,3.7975311,0.17689773
1780237763744,-0.85842514,9.122637,2.951846,-0.08055548,-0.12171131,-0.09994988,-2.9437501,-43.818752,22.837502,0.0,0.17689773
1780237763753,-0.85842514,9.122637,2.951846,-0.11995513,-0.0917798,-0.05444176,-2.9437501,-43.818752,22.837502,0.0,0.16055115
1780237763762,-0.9589237,9.190832,3.024827,-0.11995513,-0.0917798,-0.05444176,-2.9437501,-43.818752,22.837502,10.72481,0.16055115
1780237763764,-0.9589237,9.190832,3.024827,-0.11995513,-0.0917798,-0.05444176,-2.775,-43.7625,22.6875,0.0,0.16055115
1780237763771,-0.9589237,9.190832,3.024827,-0.18928629,-0.122322164,0.024052111,-2.775,-43.7625,22.6875,0.0,0.22665066
1780237763781,-0.89312106,9.230313,3.3338,-0.18928629,-0.122322164,0.024052111,-2.775,-43.7625,22.6875,13.127518,0.22665066
1780237763784,-0.89312106,9.230313,3.3338,-0.18928629,-0.122322164,0.024052111,-2.60625,-44.025,22.181252,0.0,0.22665066
1780237763790,-0.89312106,9.230313,3.3338,-0.22776967,-0.16355436,0.10224056,-2.60625,-44.025,22.181252,0.0,0.29846638
1780237763800,-0.5949155,9.195618,3.6053855,-0.22776967,-0.16355436,0.10224056,-2.60625,-44.025,22.181252,4.058552,0.29846638
1780237763804,-0.5949155,9.195618,3.6053855,-0.22776967,-0.16355436,0.10224056,-2.1937501,-43.8375,22.21875,0.0,0.29846638
1780237763810,-0.5949155,9.195618,3.6053855,-0.21310934,-0.12568182,0.13461547,-2.1937501,-43.8375,22.21875,0.0,0.28166085
1780237763819,-0.4106682,9.188439,3.856931,-0.21310934,-0.12568182,0.13461547,-2.1937501,-43.8375,22.21875,8.723259,0.28166085
1780237763823,-0.4106682,9.188439,3.856931,-0.21310934,-0.12568182,0.13461547,-2.1375,-43.65,22.06875,0.0,0.28166085
1780237763829,-0.4106682,9.188439,3.856931,-0.13186665,-0.075897776,0.12270394,-2.1375,-43.65,22.06875,0.0,0.19546238
1780237763838,-0.20578274,9.24467,3.8006997,-0.13186665,-0.075897776,0.12270394,-2.1375,-43.65,22.06875,2.6682749,0.19546238
1780237763843,-0.20578274,9.24467,3.8006997,-0.13186665,-0.075897776,0.12270394,-2.30625,-43.74375,22.21875,0.0,0.19546238
1780237763848,-0.20578274,9.24467,3.8006997,-0.059481252,-0.09849912,0.078112096,-2.30625,-43.74375,22.21875,0.0,0.13907406
1780237763857,-0.03708875,9.24826,3.6424742,-0.059481252,-0.09849912,0.078112096,-2.30625,-43.74375,22.21875,6.4217253,0.13907406
1780237763864,-0.03708875,9.24826,3.6424742,-0.059481252,-0.09849912,0.078112096,-2.325,-43.893753,22.331251,0.0,0.13907406
1780237763867,-0.03708875,9.24826,3.6424742,-0.031993125,-0.16080554,0.025579229,-2.325,-43.893753,22.331251,0.0,0.16594058
1780237763876,-0.09092726,9.239884,3.6667016,-0.031993125,-0.16080554,0.025579229,-2.325,-43.893753,22.331251,0.16286638,0.16594058
1780237763884,-0.09092726,9.239884,3.6667016,-0.031993125,-0.16080554,0.025579229,-2.34375,-43.66875,22.25625,0.0,0.16594058
1780237763886,-0.09092726,9.239884,3.6667016,0.0022143214,-0.20967332,-0.01137703,-2.34375,-43.66875,22.25625,0.0,0.20999342
1780237763896,-0.19860429,9.314362,3.6643088,0.0022143214,-0.20967332,-0.01137703,-2.34375,-43.66875,22.25625,6.994152,0.20999342
1780237763904,-0.19860429,9.314362,3.6643088,0.0022143214,-0.20967332,-0.01137703,-2.3812501,-43.48125,21.956251,0.0,0.20999342
1780237763905,-0.19860429,9.314362,3.6643088,0.05993939,-0.2145601,-0.024510246,-2.3812501,-43.48125,21.956251,0.0,0.22411942
1780237763915,-0.2428715,9.469894,3.4534414,0.05993939,-0.2145601,-0.024510246,-2.3812501,-43.48125,21.956251,7.1673393,0.22411942
1780237763924,-0.2428715,9.469894,3.4534414,0.10239327,-0.17790927,-0.012904149,-2.3812501,-43.48125,21.956251,0.0,0.20567597
1780237763925,-0.2428715,9.469894,3.4534414,0.10239327,-0.17790927,-0.012904149,-2.2687502,-43.706253,21.825,0.0,0.20567597
1780237763934,-0.33170503,9.541679,3.2380872,0.10239327,-0.17790927,-0.012904149,-2.2687502,-43.706253,21.825,0.13913049,0.20567597
1780237763943,-0.33170503,9.541679,3.2380872,0.09750649,-0.15316994,0.013973131,-2.2687502,-43.706253,21.825,0.0,0.18210931
1780237763944,-0.33170503,9.541679,3.2380872,0.09750649,-0.15316994,0.013973131,-2.3625002,-43.59375,22.087502,0.0,0.18210931
1780237763953,-0.4657031,9.639785,3.2201412,0.09750649,-0.15316994,0.013973131,-2.3625002,-43.59375,22.087502,10.272874,0.18210931
1780237763962,-0.4657031,9.639785,3.2201412,0.07490514,-0.19684553,0.059786674,-2.3625002,-43.59375,22.087502,0.0,0.21893695
1780237763964,-0.4657031,9.639785,3.2201412,0.07490514,-0.19684553,0.059786674,-2.49375,-43.631252,22.25625,0.0,0.21893695
1780237763972,-0.56380886,9.751051,3.2991042,0.07490514,-0.19684553,0.059786674,-2.49375,-43.631252,22.25625,16.924023,0.21893695
1780237763981,-0.56380886,9.751051,3.2991042,0.05932854,-0.22127941,0.1144575,-2.49375,-43.631252,22.25625,0.0,0.25609562
1780237763983,-0.56380886,9.751051,3.2991042,0.05932854,-0.22127941,0.1144575,-2.5125,-43.706253,22.2,0.0,0.25609562
1780237763991,-0.54705906,9.825528,3.5467613,0.05932854,-0.22127941,0.1144575,-2.5125,-43.706253,22.2,18.866419,0.25609562
1780237764000,-0.54705906,9.825528,3.5467613,0.09200887,-0.19287503,0.15141377,-2.5125,-43.706253,22.2,0.0,0.26190177
1780237764003,-0.54705906,9.825528,3.5467613,0.09200887,-0.19287503,0.15141377,-2.41875,-43.74375,22.06875,0.0,0.26190177
1780237764010,-0.62721866,9.837492,3.6906297,0.09200887,-0.19287503,0.15141377,-2.41875,-43.74375,22.06875,9.330068,0.26190177
1780237764019,-0.62721866,9.837492,3.6906297,0.15126105,-0.12048962,0.18226156,-2.41875,-43.74375,22.06875,0.0,0.26573846
1780237764023,-0.62721866,9.837492,3.6906297,0.15126105,-0.12048962,0.18226156,-2.41875,-43.706253,22.125,0.0,0.26573846
1780237764029,-0.6619146,9.869795,3.7516468,0.15126105,-0.12048962,0.18226156,-2.41875,-43.706253,22.125,8.966605,0.26573846
1780237764039,-0.6619146,9.869795,3.7516468,0.20440477,-0.10155336,0.198449,-2.41875,-43.706253,22.125,0.0,0.30245066
1780237764043,-0.6619146,9.869795,3.7516468,0.20440477,-0.10155336,0.198449,-2.1937501,-43.818752,22.2,0.0,0.30245066
1780237764048,-0.541077,10.074382,3.7731822,0.20440477,-0.10155336,0.198449,-2.1937501,-43.818752,22.2,38.37776,0.30245066
1780237764058,-0.541077,10.074382,3.7731822,0.23403086,-0.10460759,0.19234054,-2.1937501,-43.818752,22.2,0.0,0.320481
1780237764065,-0.541077,10.074382,3.7731822,0.23403086,-0.10460759,0.19234054,-2.1375,-43.875,22.368752,0.0,0.320481
1780237764067,-0.25722843,10.222736,4.01725,0.23403086,-0.10460759,0.19234054,-2.1375,-43.875,22.368752,107.683174,0.320481
1780237764076,-0.25722843,10.222736,4.01725,0.28473118,-0.12995775,0.15416257,-2.1375,-43.875,22.368752,0.0,0.3488939
1780237764083,-0.25722843,10.222736,4.01725,0.28473118,-0.12995775,0.15416257,-2.1937501,-43.631252,22.368752,0.0,0.3488939
1780237764086,-0.1268196,10.283753,3.944269,0.28473118,-0.12995775,0.15416257,-2.1937501,-43.631252,22.368752,9.394963,0.3488939
1780237764096,-0.1268196,10.283753,3.944269,0.31954947,-0.15622419,0.118122585,-2.1937501,-43.631252,22.368752,0.0,0.37479433
1780237764104,-0.1268196,10.283753,3.944269,0.31954947,-0.15622419,0.118122585,-2.325,-43.537502,22.425001,0.0,0.37479433
1780237764105,-0.061016977,10.0014,3.6424742,0.31954947,-0.15622419,0.118122585,-2.325,-43.537502,22.425001,370.72467,0.37479433
1780237764115,-0.061016977,10.0014,3.6424742,0.26884916,-0.18157434,0.09093989,-2.325,-43.537502,22.425001,0.0,0.33692607
1780237764124,-0.061016977,10.0014,3.6424742,0.26884916,-0.18157434,0.09093989,-2.1750002,-43.612503,22.29375,0.0,0.33692607
1780237764125,0.16869399,9.583553,3.816253,0.26884916,-0.18157434,0.09093989,-2.1750002,-43.612503,22.29375,327.3983,0.33692607
1780237764134,0.16869399,9.583553,3.816253,0.23250374,-0.16508147,0.05428905,-2.1750002,-43.612503,22.29375,0.0,0.2902709
1780237764143,0.34486556,9.35145,4.5152564,0.23250374,-0.16508147,0.05428905,-2.1750002,-43.612503,22.29375,8.152644,0.2902709
1780237764144,0.34486556,9.35145,4.5152564,0.23250374,-0.16508147,0.05428905,-2.30625,-43.537502,22.331251,0.0,0.2902709
1780237764153,0.34486556,9.35145,4.5152564,0.36108708,-0.17332791,0.023441264,-2.30625,-43.537502,22.331251,0.0,0.40121806
1780237764163,0.23688944,9.3155575,4.2951164,0.36108708,-0.17332791,0.023441264,-2.30625,-43.537502,22.331251,12.940502,0.40121806
1780237764164,0.23688944,9.3155575,4.2951164,0.36108708,-0.17332791,0.023441264,-2.3812501,-43.237503,22.48125,0.0,0.40121806
1780237764172,0.23688944,9.3155575,4.2951164,0.52051824,-0.13392825,0.028328042,-2.3812501,-43.237503,22.48125,0.0,0.5382179
1780237764182,0.24646074,9.107083,3.1686954,0.52051824,-0.13392825,0.028328042,-2.3812501,-43.237503,22.48125,61.50446,0.5382179
1780237764185,0.24646074,9.107083,3.1686954,0.52051824,-0.13392825,0.028328042,-2.325,-42.99375,22.575,0.0,0.5382179
1780237764229,0.24646074,9.107083,3.1686954,0.5021928,-0.026724568,0.022830416,-2.325,-42.99375,22.575,0.0,0.50342137
1780237764230,0.5159524,9.104691,2.3258235,0.5021928,-0.026724568,0.022830416,-2.325,-42.99375,22.575,234.52281,0.50342137
1780237764230,0.5159524,9.104691,2.3258235,0.5021928,-0.026724568,0.022830416,-2.4,-42.75,22.875,0.0,0.50342137
1780237764231,0.5159524,9.104691,2.3258235,0.30580541,0.078035735,-0.03489465,-2.4,-42.75,22.875,0.0,0.31752822
1780237764231,0.602094,9.308379,2.367698,0.30580541,0.078035735,-0.03489465,-2.4,-42.75,22.875,0.0,0.31752822
1780237764232,0.602094,9.308379,2.367698,0.30580541,0.078035735,-0.03489465,-2.6437502,-42.65625,22.81875,0.0,0.31752822
1780237764232,0.602094,9.308379,2.367698,0.088649206,0.10949437,-0.05596888,-2.6437502,-42.65625,22.81875,0.0,0.15159225
1780237764239,0.48125646,9.219545,3.0583265,0.088649206,0.10949437,-0.05596888,-2.6437502,-42.65625,22.81875,14.548846,0.15159225
1780237764244,0.48125646,9.219545,3.0583265,0.088649206,0.10949437,-0.05596888,-2.5875,-42.61875,23.268751,0.0,0.15159225
1780237764248,0.48125646,9.219545,3.0583265,-0.01733279,0.005955761,-0.0055739814,-2.5875,-42.61875,23.268751,0.0,0.019156355
1780237764258,0.5279165,8.949157,3.4187453,-0.01733279,0.005955761,-0.0055739814,-2.5875,-42.61875,23.268751,13.100719,0.019156355
1780237764264,0.5279165,8.949157,3.4187453,-0.01733279,0.005955761,-0.0055739814,-2.49375,-42.5625,23.737501,0.0,0.019156355
1780237764267,0.5279165,8.949157,3.4187453,-0.055205323,-0.1421747,0.048791423,-2.49375,-42.5625,23.737501,0.0,0.16013081
1780237764277,0.78873414,8.62822,3.519244,-0.055205323,-0.1421747,0.048791423,-2.49375,-42.5625,23.737501,24.28236,0.16013081
1780237764284,0.78873414,8.62822,3.519244,-0.055205323,-0.1421747,0.048791423,-2.41875,-42.075,24.056252,0.0,0.16013081
1780237764286,0.78873414,8.62822,3.519244,-0.07719582,-0.26495498,0.04573719,-2.41875,-42.075,24.056252,0.0,0.279736
1780237764296,1.0606186,8.5349,3.610171,-0.07719582,-0.26495498,0.04573719,-2.41875,-42.075,24.056252,2.4123192,0.279736
1780237764303,1.0606186,8.5349,3.610171,-0.07719582,-0.26495498,0.04573719,-1.95,-41.8875,24.243752,0.0,0.279736
1780237764305,1.0606186,8.5349,3.610171,-0.062230065,-0.31382278,-0.01809635,-1.95,-41.8875,24.243752,0.0,0.32044467
1780237764315,1.1754742,8.65813,3.6281173,-0.062230065,-0.31382278,-0.01809635,-1.95,-41.8875,24.243752,13.334942,0.32044467
1780237764323,1.1754742,8.65813,3.6281173,-0.062230065,-0.31382278,-0.01809635,-1.8937501,-41.5875,24.50625,0.0,0.32044467
1780237764324,1.1754742,8.65813,3.6281173,-0.023746688,-0.3153499,-0.11461022,-1.8937501,-41.5875,24.50625,0.0,0.3363703
1780237764334,1.2352947,8.682058,3.5048869,-0.023746688,-0.3153499,-0.11461022,-1.8937501,-41.5875,24.50625,1.6919136,0.3363703
1780237764344,1.2352947,8.682058,3.5048869,-0.0035887277,-0.32939938,-0.20135053,-1.8937501,-41.5875,24.50625,0.0,0.38608143
1780237764344,1.2352947,8.682058,3.5048869,-0.0035887277,-0.32939938,-0.20135053,-1.85625,-41.268753,24.562502,0.0,0.38608143
1780237764353,1.1479566,8.566006,3.3493536,-0.0035887277,-0.32939938,-0.20135053,-1.85625,-41.268753,24.562502,19.451248,0.38608143
1780237764363,1.1479566,8.566006,3.3493536,-2.2906772E-4,-0.34283802,-0.24838577,-1.85625,-41.268753,24.562502,0.0,0.42335972
1780237764363,1.1479566,8.566006,3.3493536,-2.2906772E-4,-0.34283802,-0.24838577,-1.8750001,-41.0625,24.768751,0.0,0.42335972
1780237764372,0.90508515,8.623434,3.1794631,-2.2906772E-4,-0.34283802,-0.24838577,-1.8750001,-41.0625,24.768751,3.7268534,0.42335972
1780237764382,0.90508515,8.623434,3.1794631,-0.00633754,-0.31596074,-0.2526617,-1.8750001,-41.0625,24.768751,0.0,0.40461004
1780237764383,0.90508515,8.623434,3.1794631,-0.00633754,-0.31596074,-0.2526617,-1.575,-41.15625,25.087502,0.0,0.40461004
1780237764391,0.49441698,8.926425,2.9805596,-0.00633754,-0.31596074,-0.2526617,-1.575,-41.15625,25.087502,23.56386,0.40461004
1780237764401,0.49441698,8.926425,2.9805596,-0.048180576,-0.25395975,-0.20654273,-1.575,-41.15625,25.087502,0.0,0.3308728
1780237764404,0.49441698,8.926425,2.9805596,-0.048180576,-0.25395975,-0.20654273,-1.29375,-41.006252,25.06875,0.0,0.3308728
1780237764410,0.2105684,9.152547,2.7999015,-0.048180576,-0.25395975,-0.20654273,-1.29375,-41.006252,25.06875,24.947802,0.3308728
1780237764420,0.2105684,9.152547,2.7999015,-0.13919681,-0.15225367,-0.1427092,-1.29375,-41.006252,25.06875,0.0,0.25084427
1780237764423,0.2105684,9.152547,2.7999015,-0.13919681,-0.15225367,-0.1427092,-1.0875001,-40.55625,24.956251,0.0,0.25084427
1780237764429,0.15314065,9.208778,2.7879374,-0.13919681,-0.15225367,-0.1427092,-1.0875001,-40.55625,24.956251,8.202553,0.25084427
1780237764439,0.15314065,9.208778,2.7879374,-0.25159273,-0.06826218,-0.0846787,-1.0875001,-40.55625,24.956251,0.0,0.2740969
1780237764443,0.15314065,9.208778,2.7879374,-0.25159273,-0.06826218,-0.0846787,-0.76875,-40.78125,25.087502,0.0,0.2740969
1780237764448,0.276371,9.139386,3.0080771,-0.25159273,-0.06826218,-0.0846787,-0.76875,-40.78125,25.087502,0.5781174,0.2740969
1780237764458,0.276371,9.139386,3.0080771,-0.3380276,-0.051769305,-0.043751936,-0.76875,-40.78125,25.087502,0.0,0.34475636
1780237764464,0.276371,9.139386,3.0080771,-0.3380276,-0.051769305,-0.043751936,-0.7875,-40.800003,25.10625,0.0,0.34475636
1780237764468,0.36520454,9.114262,3.394817,-0.3380276,-0.051769305,-0.043751936,-0.7875,-40.800003,25.10625,26.792286,0.34475636
1780237764477,0.36520454,9.114262,3.394817,-0.36215606,-0.14370182,-0.006795676,-0.7875,-40.800003,25.10625,0.0,0.38968372
1780237764483,0.36520454,9.114262,3.394817,-0.36215606,-0.14370182,-0.006795676,-0.52500004,-41.025,24.806252,0.0,0.38968372
1780237764487,0.5075775,9.192028,3.757629,-0.36215606,-0.14370182,-0.006795676,-0.52500004,-41.025,24.806252,52.63805,0.38968372
1780237764496,0.5075775,9.192028,3.757629,-0.31664795,-0.2814479,0.014889402,-0.52500004,-41.025,24.806252,0.0,0.42391098
1780237764503,0.5075775,9.192028,3.757629,-0.31664795,-0.2814479,0.014889402,-0.35625002,-41.34375,24.862501,0.0,0.42391098
1780237764506,0.77677006,9.176475,3.9478583,-0.31664795,-0.2814479,0.014889402,-0.35625002,-41.34375,24.862501,25.477728,0.42391098
1780237764515,0.77677006,9.176475,3.9478583,-0.21585815,-0.36818817,-0.010766183,-0.35625002,-41.34375,24.862501,0.0,0.42693463
1780237764523,0.77677006,9.176475,3.9478583,-0.21585815,-0.36818817,-0.010766183,-0.1875,-41.475002,24.6375,0.0,0.42693463
1780237764525,1.1383854,9.123833,3.9167516,-0.21585815,-0.36818817,-0.010766183,-0.1875,-41.475002,24.6375,12.877463,0.42693463
1780237764534,1.1383854,9.123833,3.9167516,-0.08635853,-0.36849362,-0.09536853,-0.1875,-41.475002,24.6375,0.0,0.3903082
1780237764544,1.1383854,9.123833,3.9167516,-0.08635853,-0.36849362,-0.09536853,0.3,-41.41875,24.73125,0.0,0.3903082
1780237764544,1.3082758,9.098708,3.5886357,-0.08635853,-0.36849362,-0.09536853,0.3,-41.41875,24.73125,0.0,0.3903082
1780237764554,1.3082758,9.098708,3.5886357,0.0028251687,-0.27625567,-0.19951798,0.3,-41.41875,24.73125,0.0,0.3407823
1780237764563,1.0713863,9.08794,3.301497,0.0028251687,-0.27625567,-0.19951798,0.3,-41.41875,24.73125,15.524441,0.3407823
1780237764564,1.0713863,9.08794,3.301497,0.0028251687,-0.27625567,-0.19951798,0.6,-41.41875,24.487501,0.0,0.3407823
1780237764572,1.0713863,9.08794,3.301497,0.04344651,-0.20753536,-0.24319357,0.6,-41.41875,24.487501,0.0,0.32264784
1780237764582,0.63559353,9.093923,3.0391839,0.04344651,-0.20753536,-0.24319357,0.6,-41.41875,24.487501,11.885452,0.32264784
1780237764583,0.63559353,9.093923,3.0391839,0.04344651,-0.20753536,-0.24319357,0.76875,-41.737503,24.375002,0.0,0.32264784
1780237764591,0.63559353,9.093923,3.0391839,0.041308545,-0.20142688,-0.1918824,0.76875,-41.737503,24.375002,0.0,0.28124374
1780237764601,0.4776672,9.115458,2.7065816,0.041308545,-0.20142688,-0.1918824,0.76875,-41.737503,24.375002,8.858967,0.28124374
1780237764603,0.4776672,9.115458,2.7065816,0.041308545,-0.20142688,-0.1918824,0.95625,-41.475002,24.093752,0.0,0.28124374
1780237764610,0.4776672,9.115458,2.7065816,-0.010308048,-0.21608722,-0.12621632,0.95625,-41.475002,24.093752,0.0,0.2504606
1780237764620,0.5937191,9.129815,2.5486553,-0.010308048,-0.21608722,-0.12621632,0.95625,-41.475002,24.093752,2.3327827,0.2504606
1780237764624,0.5937191,9.129815,2.5486553,-0.010308048,-0.21608722,-0.12621632,1.1437501,-41.30625,23.98125,0.0,0.2504606
1780237764630,0.5937191,9.129815,2.5486553,-0.07230905,-0.20845163,-0.114304796,1.1437501,-41.30625,23.98125,0.0,0.24848796
1780237764639,0.76959157,9.178867,2.7089744,-0.07230905,-0.20845163,-0.114304796,1.1437501,-41.30625,23.98125,11.523459,0.24848796
1780237764643,0.76959157,9.178867,2.7089744,-0.07230905,-0.20845163,-0.114304796,1.21875,-41.15625,24.112501,0.0,0.24848796
1780237764649,0.76959157,9.178867,2.7089744,-0.087274805,-0.16660859,-0.16408885,1.21875,-41.15625,24.112501,0.0,0.2496006
1780237764658,0.59970117,9.30479,2.9279177,-0.087274805,-0.16660859,-0.16408885,1.21875,-41.15625,24.112501,19.092136,0.2496006
1780237764664,0.59970117,9.30479,2.9279177,-0.087274805,-0.16660859,-0.16408885,1.44375,-41.0625,24.075,0.0,0.2496006
1780237764668,0.59970117,9.30479,2.9279177,-0.06864396,-0.113159455,-0.20776442,1.44375,-41.0625,24.075,0.0,0.24633943
1780237764677,0.18544376,9.445967,3.1519456,-0.06864396,-0.113159455,-0.20776442,1.44375,-41.0625,24.075,20.743795,0.24633943
1780237764684,0.18544376,9.445967,3.1519456,-0.06864396,-0.113159455,-0.20776442,1.8937501,-40.93125,24.093752,0.0,0.24633943
1780237764687,0.18544376,9.445967,3.1519456,-0.034741938,-0.119267926,-0.1906607,1.8937501,-40.93125,24.093752,0.0,0.22755954
1780237764696,-0.05623133,9.571589,3.2476585,-0.034741938,-0.119267926,-0.1906607,1.8937501,-40.93125,24.093752,16.446539,0.22755954
1780237764748,-0.05623133,9.571589,3.2476585,-0.034741938,-0.119267926,-0.1906607,2.025,-40.7625,23.8875,0.0,0.22755954
1780237764749,-0.05623133,9.571589,3.2476585,-0.016111096,-0.22341739,-0.117053606,2.025,-40.7625,23.8875,0.0,0.25273788
1780237764749,-0.101694964,9.656535,3.1220353,-0.016111096,-0.22341739,-0.117053606,2.025,-40.7625,23.8875,0.0,0.25273788
1780237764750,-0.101694964,9.656535,3.1220353,-0.016111096,-0.22341739,-0.117053606,2.025,-40.65,23.85,0.0,0.25273788
1780237764750,-0.101694964,9.656535,3.1220353,-0.018554486,-0.30649263,-0.016263809,2.025,-40.65,23.85,0.0,0.30748418
1780237764750,0.10767702,9.786943,3.0969107,-0.018554486,-0.30649263,-0.016263809,2.025,-40.65,23.85,0.0,0.30748418
1780237764751,0.10767702,9.786943,3.0969107,-0.018554486,-0.30649263,-0.016263809,2.1937501,-40.4625,23.775002,0.0,0.30748418
1780237764751,0.10767702,9.786943,3.0969107,3.8177954E-4,-0.282975,0.048486,2.1937501,-40.4625,23.775002,0.0,0.2870991
1780237764754,0.28265217,9.783355,3.144767,3.8177954E-4,-0.282975,0.048486,2.1937501,-40.4625,23.775002,4.814466,0.2870991
1780237764763,0.28265217,9.783355,3.144767,0.02817533,-0.16874656,0.074447006,2.1937501,-40.4625,23.775002,0.0,0.18657869
1780237764764,0.28265217,9.783355,3.144767,0.02817533,-0.16874656,0.074447006,2.41875,-40.443752,23.60625,0.0,0.18657869
1780237764774,0.23330021,9.688838,3.2823544,0.02817533,-0.16874656,0.074447006,2.41875,-40.443752,23.60625,4.7854424,0.18657869
1780237764782,0.23330021,9.688838,3.2823544,0.04344651,-0.07009472,0.10560022,2.41875,-40.443752,23.60625,0.0,0.1339861
1780237764784,0.23330021,9.688838,3.2823544,0.04344651,-0.07009472,0.10560022,2.60625,-40.40625,23.53125,0.0,0.1339861
1780237764842,0.2428715,9.603892,3.502494,0.04344651,-0.07009472,0.10560022,2.60625,-40.40625,23.53125,0.118535146,0.1339861
1780237764843,0.2428715,9.603892,3.502494,0.038559735,-0.097277425,0.14011309,2.60625,-40.40625,23.53125,0.0,0.17487545
1780237764843,0.2428715,9.603892,3.502494,0.038559735,-0.097277425,0.14011309,2.86875,-40.3125,23.325,0.0,0.17487545
1780237764844,0.4010969,9.717552,3.757629,0.038559735,-0.097277425,0.14011309,2.86875,-40.3125,23.325,200.96205,0.17487545
1780237764844,0.4010969,9.717552,3.757629,0.06513159,-0.19348587,0.16546325,2.86875,-40.3125,23.325,0.0,0.26278698
1780237764845,0.4010969,9.717552,3.757629,0.06513159,-0.19348587,0.16546325,3.3375,-40.29375,23.212502,0.0,0.26278698
1780237764845,0.5590232,9.8937235,3.667898,0.06513159,-0.19348587,0.16546325,3.3375,-40.29375,23.212502,0.0,0.26278698
1780237764846,0.5590232,9.8937235,3.667898,0.12102412,-0.1937913,0.18653747,3.3375,-40.29375,23.212502,0.0,0.29495445
1780237764846,0.5590232,9.8937235,3.667898,0.12102412,-0.1937913,0.18653747,3.3937502,-40.65,23.00625,0.0,0.29495445
1780237764849,0.56380886,9.825528,3.2285159,0.12102412,-0.1937913,0.18653747,3.3937502,-40.65,23.00625,69.60901,0.29495445
1780237764880,0.56380886,9.825528,3.2285159,0.11766446,-0.035581853,0.18226156,3.3937502,-40.65,23.00625,0.0,0.21984145
1780237764881,0.56380886,9.825528,3.2285159,0.11766446,-0.035581853,0.18226156,3.3375,-40.66875,22.893751,0.0,0.21984145
1780237764881,0.39870408,9.812068,3.0993035,0.11766446,-0.035581853,0.18226156,3.3375,-40.66875,22.893751,0.0,0.21984145
1780237764882,0.39870408,9.812068,3.0993035,0.05780142,0.10277505,0.14774868,3.3375,-40.66875,22.893751,0.0,0.18903276
1780237764884,0.39870408,9.812068,3.0993035,0.05780142,0.10277505,0.14774868,3.35625,-40.800003,22.800001,0.0,0.18903276
1780237764887,0.12921242,9.932009,3.4426737,0.05780142,0.10277505,0.14774868,3.35625,-40.800003,22.800001,71.63429,0.18903276
1780237764897,0.12921242,9.932009,3.4426737,0.01565296,0.12720895,0.109265305,3.35625,-40.800003,22.800001,0.0,0.1684222
1780237764904,0.12921242,9.932009,3.4426737,0.01565296,0.12720895,0.109265305,3.4875002,-40.78125,22.78125,0.0,0.1684222
1780237764906,0.15672988,10.00499,3.9693937,0.01565296,0.12720895,0.109265305,3.4875002,-40.78125,22.78125,126.119606,0.1684222
1780237764916,0.15672988,10.00499,3.9693937,0.055358034,0.11132691,0.03840702,3.4875002,-40.78125,22.78125,0.0,0.13012798
1780237764924,0.15672988,10.00499,3.9693937,0.055358034,0.11132691,0.03840702,3.4125001,-40.7625,23.00625,0.0,0.13012798
1780237764926,0.12083755,9.983455,4.128516,0.055358034,0.11132691,0.03840702,3.4125001,-40.7625,23.00625,19.661427,0.13012798
1780237764935,0.12083755,9.983455,4.128516,0.11338852,0.18554485,-0.052914646,3.4125001,-40.7625,23.00625,0.0,0.22379412
1780237764944,0.12083755,9.983455,4.128516,0.11338852,0.18554485,-0.052914646,3.525,-40.96875,22.987501,0.0,0.22379412
1780237764944,-0.1902294,9.842278,4.1751766,0.11338852,0.18554485,-0.052914646,3.525,-40.96875,22.987501,0.0,0.22379412
1780237764954,-0.1902294,9.842278,4.1751766,0.15370443,0.28022617,-0.1078909,3.525,-40.96875,22.987501,0.0,0.337331
1780237764964,-0.56141603,9.558429,4.229314,0.15370443,0.28022617,-0.1078909,3.525,-40.96875,22.987501,22.555828,0.337331
1780237764964,-0.56141603,9.558429,4.229314,0.15370443,0.28022617,-0.1078909,3.2625,-40.818752,23.400002,0.0,0.337331
1780237764973,-0.56141603,9.558429,4.229314,0.17264071,0.2854184,-0.1002553,3.2625,-40.818752,23.400002,0.0,0.34830964
1780237764982,-0.7013961,9.300004,4.2317066,0.17264071,0.2854184,-0.1002553,3.2625,-40.818752,23.400002,25.09096,0.34830964
1780237764983,-0.7013961,9.300004,4.2317066,0.17264071,0.2854184,-0.1002553,2.98125,-40.631252,23.493752,0.0,0.34830964
1780237764992,-0.7013961,9.300004,4.2317066,0.18241426,0.20203774,-0.049554985,2.98125,-40.631252,23.493752,0.0,0.27667654
1780237765002,-0.79471624,9.066405,4.202694,0.18241426,0.20203774,-0.049554985,2.98125,-40.631252,23.493752,21.688557,0.27667654
1780237765003,-0.79471624,9.066405,4.202694,0.18241426,0.20203774,-0.049554985,2.8125,-40.2,23.6625,0.0,0.27667654
1780237765011,-0.79471624,9.066405,4.202694,0.21356747,0.16783029,0.03260397,2.8125,-40.2,23.6625,0.0,0.27357098
1780237765021,-1.0259227,8.822337,4.21735,0.21356747,0.16783029,0.03260397,2.8125,-40.2,23.6625,19.246387,0.27357098
1780237765024,-1.0259227,8.822337,4.21735,0.21356747,0.16783029,0.03260397,2.60625,-39.9375,23.8125,0.0,0.27357098
1780237765030,-1.0259227,8.822337,4.21735,0.30091864,0.20509197,0.13980767,2.60625,-39.9375,23.8125,0.0,0.3900781
1780237765040,-0.9732806,8.705089,3.8641095,0.30091864,0.20509197,0.13980767,2.60625,-39.9375,23.8125,25.842667,0.3900781
1780237765044,-0.9732806,8.705089,3.8641095,0.30091864,0.20509197,0.13980767,2.53125,-39.80625,24.0,0.0,0.3900781
1780237765049,-0.9732806,8.705089,3.8641095,0.34734303,0.25518143,0.23265645,2.53125,-39.80625,24.0,0.0,0.4897895
1780237765059,-0.6308079,8.717052,3.44387,0.34734303,0.25518143,0.23265645,2.53125,-39.80625,24.0,17.988586,0.4897895
1780237765063,-0.6308079,8.717052,3.44387,0.34734303,0.25518143,0.23265645,2.4,-39.65625,24.281252,0.0,0.4897895
1780237765068,-0.6308079,8.717052,3.44387,0.3421508,0.2560977,0.2873273,2.4,-39.65625,24.281252,0.0,0.5149856
1780237765078,-0.28145576,8.790034,3.0643084,0.3421508,0.2560977,0.2873273,2.4,-39.65625,24.281252,8.078575,0.5149856
1780237765083,-0.28145576,8.790034,3.0643084,0.3421508,0.2560977,0.2873273,2.11875,-39.375,24.431252,0.0,0.5149856
1780237765088,-0.28145576,8.790034,3.0643084,0.30275118,0.22372282,0.29710084,2.11875,-39.375,24.431252,0.0,0.47956136
1780237765098,0.0526421,8.859426,2.6455646,0.30275118,0.22372282,0.29710084,2.11875,-39.375,24.431252,6.6958427,0.47956136
1780237765103,0.0526421,8.859426,2.6455646,0.30275118,0.22372282,0.29710084,1.6125001,-38.86875,24.45,0.0,0.47956136
1780237765106,0.0526421,8.859426,2.6455646,0.2150946,0.2509055,0.24701136,1.6125001,-38.86875,24.45,0.0,0.41259408
1780237765116,0.33529428,8.9348,2.440679,0.2150946,0.2509055,0.24701136,1.6125001,-38.86875,24.45,2.2079468,0.41259408
1780237765123,0.33529428,8.9348,2.440679,0.2150946,0.2509055,0.24701136,1.48125,-38.7,24.69375,0.0,0.41259408
1780237765125,0.33529428,8.9348,2.440679,0.1002553,0.34314343,0.13797513,1.48125,-38.7,24.69375,0.0,0.38319144
1780237765135,0.21415763,9.122637,2.5402803,0.1002553,0.34314343,0.13797513,1.48125,-38.7,24.69375,20.391273,0.38319144
1780237765143,0.21415763,9.122637,2.5402803,0.1002553,0.34314343,0.13797513,1.21875,-38.5125,24.825,0.0,0.38319144
1780237765144,0.21415763,9.122637,2.5402803,-0.0051158457,0.40422818,0.045431767,1.21875,-38.5125,24.825,0.0,0.4068054
1780237765155,-0.019142581,9.190832,2.7448666,-0.0051158457,0.40422818,0.045431767,1.21875,-38.5125,24.825,10.894689,0.4068054
1780237765164,-0.019142581,9.190832,2.7448666,-0.08758023,0.36360684,-0.004963134,1.21875,-38.5125,24.825,0.0,0.3740386
1780237765165,-0.019142581,9.190832,2.7448666,-0.08758023,0.36360684,-0.004963134,0.7875,-38.41875,25.143751,0.0,0.3740386
1780237765173,0.043070808,9.062816,2.7795627,-0.08758023,0.36360684,-0.004963134,0.7875,-38.41875,25.143751,14.0497675,0.3740386
1780237765183,0.043070808,9.062816,2.7795627,-0.18378867,0.27686653,-0.053830914,0.7875,-38.41875,25.143751,0.0,0.33664688
1780237765184,0.043070808,9.062816,2.7795627,-0.18378867,0.27686653,-0.053830914,0.65625,-38.081253,25.48125,0.0,0.33664688
1780237765192,0.069391854,8.949157,2.8118658,-0.18378867,0.27686653,-0.053830914,0.65625,-38.081253,25.48125,12.351631,0.33664688
1780237765202,0.069391854,8.949157,2.8118658,-0.29221407,0.24724042,-0.1026987,0.65625,-38.081253,25.48125,0.0,0.3963129
1780237765204,0.069391854,8.949157,2.8118658,-0.29221407,0.24724042,-0.1026987,0.35625002,-37.912502,25.781252,0.0,0.3963129
1780237765211,-0.23688944,8.959925,3.283551,-0.29221407,0.24724042,-0.1026987,0.35625002,-37.912502,25.781252,23.544447,0.3963129
1780237765271,-0.23688944,8.959925,3.283551,-0.3032093,0.24265908,-0.117053606,0.35625002,-37.912502,25.781252,0.0,0.4056117
1780237765271,-0.23688944,8.959925,3.283551,-0.3032093,0.24265908,-0.117053606,0.112500004,-37.74375,25.837502,0.0,0.4056117
1780237765272,-0.44895336,9.030513,3.7265222,-0.3032093,0.24265908,-0.117053606,0.112500004,-37.74375,25.837502,233.92485,0.4056117
1780237765272,-0.44895336,9.030513,3.7265222,-0.20180866,0.2753394,-0.11155598,0.112500004,-37.74375,25.837502,0.0,0.3591424
1780237765273,-0.44895336,9.030513,3.7265222,-0.20180866,0.2753394,-0.11155598,-0.22500001,-38.081253,25.706251,0.0,0.3591424
1780237765273,-0.31256247,9.032906,3.728915,-0.20180866,0.2753394,-0.11155598,-0.22500001,-38.081253,25.706251,0.0,0.3591424
1780237765273,-0.31256247,9.032906,3.728915,-0.07658497,0.30557635,-0.11919157,-0.22500001,-38.081253,25.706251,0.0,0.33682162
1780237765274,-0.31256247,9.032906,3.728915,-0.07658497,0.30557635,-0.11919157,-0.3375,-37.96875,25.875002,0.0,0.33682162
1780237765274,-0.21535404,9.065208,3.3756745,-0.07658497,0.30557635,-0.11919157,-0.3375,-37.96875,25.875002,0.0,0.33682162
1780237765278,-0.21535404,9.065208,3.3756745,0.003436016,0.3229855,-0.116748184,-0.3375,-37.96875,25.875002,0.0,0.34345534
1780237765283,-0.21535404,9.065208,3.3756745,0.003436016,0.3229855,-0.116748184,-0.39375,-37.93125,25.556252,0.0,0.34345534
1780237765288,-0.47886363,9.162118,3.022434,0.003436016,0.3229855,-0.116748184,-0.39375,-37.93125,25.556252,3.214264,0.34345534
1780237765297,-0.47886363,9.162118,3.022434,0.04833329,0.30343837,-0.05260922,-0.39375,-37.93125,25.556252,0.0,0.31173494
1780237765304,-0.47886363,9.162118,3.022434,0.04833329,0.30343837,-0.05260922,-0.4875,-38.025,25.5375,0.0,0.31173494
1780237765307,-0.7827521,9.298808,2.5965116,0.04833329,0.30343837,-0.05260922,-0.4875,-38.025,25.5375,8.849462,0.31173494
1780237765316,-0.7827521,9.298808,2.5965116,0.02817533,0.27595025,0.057954133,-0.4875,-38.025,25.5375,0.0,0.28337446
1780237765323,-0.7827521,9.298808,2.5965116,0.02817533,0.27595025,0.057954133,-0.375,-37.912502,25.44375,0.0,0.28337446
1780237765326,-0.85244304,9.423235,2.333002,0.02817533,0.27595025,0.057954133,-0.375,-37.912502,25.44375,19.633293,0.28337446
1780237765335,-0.85244304,9.423235,2.333002,-0.04176668,0.27045262,0.16179816,-0.375,-37.912502,25.44375,0.0,0.3179115
1780237765343,-0.85244304,9.423235,2.333002,-0.04176668,0.27045262,0.16179816,-0.5625,-38.04375,25.031252,0.0,0.3179115
1780237765345,-0.6966105,9.401699,2.4646072,-0.04176668,0.27045262,0.16179816,-0.5625,-38.04375,25.031252,0.3957748,0.3179115
1780237765354,-0.6966105,9.401699,2.4646072,-0.092772424,0.25945738,0.22776967,-0.5625,-38.04375,25.031252,0.0,0.35749668
1780237765364,-0.6966105,9.401699,2.4646072,-0.092772424,0.25945738,0.22776967,-0.82500005,-37.987503,24.6375,0.0,0.35749668
1780237765365,-0.31136605,9.334701,2.8310082,-0.092772424,0.25945738,0.22776967,-0.82500005,-37.987503,24.6375,15.212058,0.35749668
1780237765374,-0.31136605,9.334701,2.8310082,-0.074447006,0.228915,0.23509984,-0.82500005,-37.987503,24.6375,0.0,0.33647642
1780237765383,-0.015553347,9.367003,3.094518,-0.074447006,0.228915,0.23509984,-0.82500005,-37.987503,24.6375,11.713558,0.33647642
1780237765384,-0.015553347,9.367003,3.094518,-0.074447006,0.228915,0.23509984,-0.8625,-37.800003,24.487501,0.0,0.33647642
1780237765392,-0.015553347,9.367003,3.094518,-0.010918895,0.15683503,0.20394664,-0.8625,-37.800003,24.487501,0.0,0.2575086
1780237765402,0.02751746,9.568001,2.990131,-0.010918895,0.15683503,0.20394664,-0.8625,-37.800003,24.487501,15.944386,0.2575086
1780237765405,0.02751746,9.568001,2.990131,-0.010918895,0.15683503,0.20394664,-0.75,-37.518753,24.562502,0.0,0.2575086
1780237765412,0.02751746,9.568001,2.990131,0.026648212,0.060321167,0.17340426,-0.75,-37.518753,24.562502,0.0,0.18552037
1780237765422,0.008374879,9.751051,2.6898317,0.026648212,0.060321167,0.17340426,-0.75,-37.518753,24.562502,9.0865135,0.18552037
1780237765424,0.008374879,9.751051,2.6898317,0.026648212,0.060321167,0.17340426,-0.63750005,-37.612503,24.581251,0.0,0.18552037
1780237765430,0.008374879,9.751051,2.6898317,0.007406523,0.0193944,0.13675343,-0.63750005,-37.612503,24.581251,0.0,0.13832028
1780237765440,0.051445685,9.766604,2.6228328,0.007406523,0.0193944,0.13675343,-0.63750005,-37.612503,24.581251,0.24623871,0.13832028
1780237765443,0.051445685,9.766604,2.6228328,0.007406523,0.0193944,0.13675343,-0.65625,-37.55625,24.581251,0.0,0.13832028
1780237765450,0.051445685,9.766604,2.6228328,-0.023746688,0.051463883,0.08544226,-0.65625,-37.55625,24.581251,0.0,0.10253202
1780237765459,0.2440679,9.70798,2.908775,-0.023746688,0.051463883,0.08544226,-0.65625,-37.55625,24.581251,2.726873,0.10253202
1780237765463,0.2440679,9.70798,2.908775,-0.023746688,0.051463883,0.08544226,-0.7875,-37.125,24.562502,0.0,0.10253202
1780237765469,0.2440679,9.70798,2.908775,-0.033825666,0.08597675,0.012140589,-0.7875,-37.125,24.562502,0.0,0.09318568
1780237765478,0.2644069,9.608679,3.275176,-0.033825666,0.08597675,0.012140589,-0.7875,-37.125,24.562502,1.9601187,0.09318568
1780237765483,0.2644069,9.608679,3.275176,-0.033825666,0.08597675,0.012140589,-1.125,-37.21875,24.31875,0.0,0.09318568
1780237765488,0.2644069,9.608679,3.275176,-0.023135839,0.11132691,-0.039476003,-1.125,-37.21875,24.31875,0.0,0.12036321
1780237765497,0.008374879,9.6122675,3.708576,-0.023135839,0.11132691,-0.039476003,-1.125,-37.21875,24.31875,16.434246,0.12036321
1780237765503,0.008374879,9.6122675,3.708576,-0.023135839,0.11132691,-0.039476003,-1.06875,-37.4625,24.581251,0.0,0.12036321
1780237765507,0.008374879,9.6122675,3.708576,0.0019088977,0.023364907,-0.020845164,-1.06875,-37.4625,24.581251,0.0,0.031370107
1780237765516,-0.14356937,9.698409,3.7253258,0.0019088977,0.023364907,-0.020845164,-1.06875,-37.4625,24.581251,9.710736,0.031370107
1780237765524,-0.14356937,9.698409,3.7253258,0.0019088977,0.023364907,-0.020845164,-1.1625,-37.4625,24.337502,0.0,0.031370107
1780237765526,-0.14356937,9.698409,3.7253258,-0.015500249,-0.16783029,0.061313793,-1.1625,-37.4625,24.337502,0.0,0.17935061
1780237765536,0.42502514,9.690035,3.3074791,-0.015500249,-0.16783029,0.061313793,-1.1625,-37.4625,24.337502,14.250183,0.17935061
1780237765543,0.42502514,9.690035,3.3074791,-0.015500249,-0.16783029,0.061313793,-1.4625001,-37.74375,24.243752,0.0,0.17935061
1780237765545,0.42502514,9.690035,3.3074791,-0.087274805,-0.21364383,0.08910734,-1.4625001,-37.74375,24.243752,0.0,0.24738775
1780237765554,0.8488538,9.680463,3.1232316,-0.087274805,-0.21364383,0.08910734,-1.4625001,-37.74375,24.243752,4.510456,0.24738775
1780237765564,0.8488538,9.680463,3.1232316,-0.087274805,-0.21364383,0.08910734,-1.7062501,-37.59375,24.2625,0.0,0.24738775
1780237765565,0.8488538,9.680463,3.1232316,-0.13675343,0.0035123718,0.044515494,-1.7062501,-37.59375,24.2625,0.0,0.14385918
1780237765574,0.55423754,9.859028,3.3373895,-0.13675343,0.0035123718,0.044515494,-1.7062501,-37.59375,24.2625,24.016699,0.14385918
1780237765584,0.55423754,9.859028,3.3373895,-0.15996562,0.17363334,0.011529742,-1.7062501,-37.59375,24.2625,0.0,0.23636934
1780237765585,0.55423754,9.859028,3.3373895,-0.15996562,0.17363334,0.011529742,-2.1375,-37.59375,24.150002,0.0,0.23636934
1780237765593,0.14117654,9.783355,3.5084763,-0.15996562,0.17363334,0.011529742,-2.1375,-37.59375,24.150002,3.6171672,0.23636934
1780237765602,0.14117654,9.783355,3.5084763,-0.20913883,0.16721943,0.030160584,-2.1375,-37.59375,24.150002,0.0,0.26946437
1780237765606,0.14117654,9.783355,3.5084763,-0.20913883,0.16721943,0.030160584,-2.34375,-37.5,24.056252,0.0,0.26946437
1780237765612,0.23808585,9.425628,3.5671003,-0.20913883,0.16721943,0.030160584,-2.34375,-37.5,24.056252,52.25833,0.26946437
1780237765622,0.23808585,9.425628,3.5671003,-0.30351472,0.060932014,0.034741938,-2.34375,-37.5,24.056252,0.0,0.31151387
1780237765623,0.23808585,9.425628,3.5671003,-0.30351472,0.060932014,0.034741938,-2.4562502,-37.74375,23.71875,0.0,0.31151387
1780237765631,0.5494519,9.035298,3.6834514,-0.30351472,0.060932014,0.034741938,-2.4562502,-37.74375,23.71875,38.51342,0.31151387
1780237765640,0.5494519,9.035298,3.6834514,-0.4000286,0.018783553,0.0096972,-2.4562502,-37.74375,23.71875,0.0,0.40058672
1780237765643,0.5494519,9.035298,3.6834514,-0.4000286,0.018783553,0.0096972,-2.49375,-37.65,23.456251,0.0,0.40058672
1780237765650,0.4226323,8.683254,4.145266,-0.4000286,0.018783553,0.0096972,-2.49375,-37.65,23.456251,20.213535,0.40058672
1780237765659,0.4226323,8.683254,4.145266,-0.402472,0.012064233,0.01305686,-2.49375,-37.65,23.456251,0.0,0.4028644
1780237765663,0.4226323,8.683254,4.145266,-0.402472,0.012064233,0.01305686,-2.6437502,-37.4625,23.1,0.0,0.4028644
1780237765669,0.30418757,8.422437,4.74736,-0.402472,0.012064233,0.01305686,-2.6437502,-37.4625,23.1,6.9642067,0.4028644
1780237765678,0.30418757,8.422437,4.74736,-0.27938625,-0.06398625,0.04421007,-2.6437502,-37.4625,23.1,0.0,0.2900094
1780237765683,0.30418757,8.422437,4.74736,-0.27938625,-0.06398625,0.04421007,-2.68125,-37.36875,23.34375,0.0,0.2900094
1780237765688,0.5315057,8.434401,4.848158,-0.27938625,-0.06398625,0.04421007,-2.68125,-37.36875,23.34375,13.997269,0.2900094
1780237765698,0.5315057,8.434401,4.848158,-0.10834903,-0.12720895,0.03657448,-2.68125,-37.36875,23.34375,0.0,0.17105356
1780237765704,0.5315057,8.434401,4.848158,-0.10834903,-0.12720895,0.03657448,-2.4,-37.537502,23.23125,0.0,0.17105356
1780237765707,0.887139,8.630612,4.4781675,-0.10834903,-0.12720895,0.03657448,-2.4,-37.537502,23.23125,6.873131,0.17105356
1780237765717,0.887139,8.630612,4.4781675,0.032145835,-0.09361234,-0.028786177,-2.4,-37.537502,23.23125,0.0,0.10307895
1780237765723,0.887139,8.630612,4.4781675,0.032145835,-0.09361234,-0.028786177,-2.2687502,-37.55625,23.025002,0.0,0.10307895
1780237765726,1.1371889,8.788837,3.9454653,0.032145835,-0.09361234,-0.028786177,-2.2687502,-37.55625,23.025002,20.97702,0.10307895
1780237765774,1.1371889,8.788837,3.9454653,0.079791926,-0.011147963,-0.12560546,-2.2687502,-37.55625,23.025002,0.0,0.14922386
1780237765775,1.1371889,8.788837,3.9454653,0.079791926,-0.011147963,-0.12560546,-2.1750002,-37.55625,22.743752,0.0,0.14922386
1780237765775,1.0725827,8.7780695,3.5324044,0.079791926,-0.011147963,-0.12560546,-2.1750002,-37.55625,22.743752,0.0,0.14922386
1780237765776,1.0725827,8.7780695,3.5324044,0.023288552,0.026419144,-0.19524206,-2.1750002,-37.55625,22.743752,0.0,0.19839302
1780237765776,1.0725827,8.7780695,3.5324044,0.023288552,0.026419144,-0.19524206,-2.1375,-37.7625,22.63125,0.0,0.19839302
1780237765777,0.7791629,8.793623,3.3517463,0.023288552,0.026419144,-0.19524206,-2.1375,-37.7625,22.63125,79.81396,0.19839302
1780237765777,0.7791629,8.793623,3.3517463,-0.08758023,0.005955761,-0.21692713,-2.1375,-37.7625,22.63125,0.0,0.23401527
1780237765784,0.35324043,8.940782,3.2943187,-0.08758023,0.005955761,-0.21692713,-2.1375,-37.7625,22.63125,13.141632,0.23401527
1780237765786,0.35324043,8.940782,3.2943187,-0.08758023,0.005955761,-0.21692713,-2.325,-37.74375,22.5,0.0,0.23401527
1780237765793,0.35324043,8.940782,3.2943187,-0.2073063,-0.017561859,-0.19004986,-2.325,-37.74375,22.5,0.0,0.28178585
1780237765802,0.015553347,9.0029955,3.269194,-0.2073063,-0.017561859,-0.19004986,-2.325,-37.74375,22.5,4.807049,0.28178585
1780237765803,0.015553347,9.0029955,3.269194,-0.2073063,-0.017561859,-0.19004986,-2.11875,-37.96875,22.462502,0.0,0.28178585
1780237765812,0.015553347,9.0029955,3.269194,-0.34291437,0.020005248,-0.1298814,-2.11875,-37.96875,22.462502,0.0,0.3672324
1780237765822,-0.23808585,8.920443,3.6221352,-0.34291437,0.020005248,-0.1298814,-2.11875,-37.96875,22.462502,5.253029,0.3672324
1780237765824,-0.23808585,8.920443,3.6221352,-0.34291437,0.020005248,-0.1298814,-1.9312501,-37.7625,22.3125,0.0,0.3672324
1780237765831,-0.23808585,8.920443,3.6221352,-0.43912283,0.07345438,-0.051998373,-1.9312501,-37.7625,22.3125,0.0,0.44825017
1780237765841,-0.35443684,8.849854,4.273581,-0.43912283,0.07345438,-0.051998373,-1.9312501,-37.7625,22.3125,20.335197,0.44825017
1780237765843,-0.35443684,8.849854,4.273581,-0.43912283,0.07345438,-0.051998373,-1.8937501,-37.78125,21.91875,0.0,0.44825017
1780237765851,-0.35443684,8.849854,4.273581,-0.4244625,0.09239065,0.03993414,-1.8937501,-37.78125,21.91875,0.0,0.43623292
1780237765860,-0.1160519,8.810373,4.6564326,-0.4244625,0.09239065,0.03993414,-1.8937501,-37.78125,21.91875,14.643457,0.43623292
1780237765864,-0.1160519,8.810373,4.6564326,-0.4244625,0.09239065,0.03993414,-1.9312501,-37.66875,21.862501,0.0,0.43623292
1780237765869,-0.1160519,8.810373,4.6564326,-0.3264215,0.02183779,0.11170869,-1.9312501,-37.66875,21.862501,0.0,0.34569743
1780237765879,0.4621139,8.866604,4.475775,-0.3264215,0.02183779,0.11170869,-1.9312501,-37.66875,21.862501,2.2891045,0.34569743
1780237765884,0.4621139,8.866604,4.475775,-0.3264215,0.02183779,0.11170869,-1.9687501,-37.612503,21.675001,0.0,0.34569743
1780237765889,0.4621139,8.866604,4.475775,-0.2396812,-0.097277425,0.1312558,-1.9687501,-37.612503,21.675001,0.0,0.29006562
1780237765898,0.8895318,8.91805,4.0328035,-0.2396812,-0.097277425,0.1312558,-1.9687501,-37.612503,21.675001,12.793223,0.29006562
1780237765904,0.8895318,8.91805,4.0328035,-0.2396812,-0.097277425,0.1312558,-1.85625,-37.55625,21.6375,0.0,0.29006562
1780237765907,0.8895318,8.91805,4.0328035,-0.1996707,-0.12629268,0.10162971,-1.85625,-37.55625,21.6375,0.0,0.25719026
1780237765918,1.0893325,8.949157,3.9370906,-0.1996707,-0.12629268,0.10162971,-1.85625,-37.55625,21.6375,0.87070465,0.25719026
1780237765924,1.0893325,8.949157,3.9370906,-0.1996707,-0.12629268,0.10162971,-1.8937501,-37.612503,21.46875,0.0,0.25719026
1780237765927,1.0893325,8.949157,3.9370906,-0.1416402,-0.045966256,0.030160584,-1.8937501,-37.612503,21.46875,0.0,0.15193586
1780237765936,1.1204392,8.922835,4.167998,-0.1416402,-0.045966256,0.030160584,-1.8937501,-37.612503,21.46875,8.269523,0.15193586
1780237765943,1.1204392,8.922835,4.167998,-0.1416402,-0.045966256,0.030160584,-1.7062501,-37.55625,21.393751,0.0,0.15193586
1780237765945,1.1204392,8.922835,4.167998,-0.04176668,0.019088976,-0.05077668,-1.7062501,-37.55625,21.393751,0.0,0.06846251
1780237765955,0.9421739,8.930014,4.208975,-0.04176668,0.019088976,-0.05077668,-1.7062501,-37.55625,21.393751,0.52309036,0.06846251
1780237765963,0.9421739,8.930014,4.208975,-0.04176668,0.019088976,-0.05077668,-1.66875,-37.143753,21.50625,0.0,0.06846251
1780237765965,0.9421739,8.930014,4.208975,0.054747187,0.019699825,-0.09567395,-1.66875,-37.143753,21.50625,0.0,0.11197697
1780237765974,0.6798607,8.985049,3.836592,0.054747187,0.019699825,-0.09567395,-1.66875,-37.143753,21.50625,13.72952,0.11197697
1780237765984,0.6798607,8.985049,3.836592,0.09078717,0.02519745,-0.10361496,-1.66875,-37.143753,21.50625,0.0,0.14004743
1780237765986,0.6798607,8.985049,3.836592,0.09078717,0.02519745,-0.10361496,-1.725,-37.5,21.50625,0.0,0.14004743
1780237765994,0.37477586,9.018549,3.3194432,0.09078717,0.02519745,-0.10361496,-1.725,-37.5,21.50625,22.019623,0.14004743
1780237766003,0.37477586,9.018549,3.3194432,0.04314109,0.08903099,-0.08376243,-1.725,-37.5,21.50625,0.0,0.12962954
1780237766005,0.37477586,9.018549,3.3194432,0.04314109,0.08903099,-0.08376243,-1.66875,-37.48125,21.6,0.0,0.12962954
1780237766012,0.24047868,9.12144,3.1806595,0.04314109,0.08903099,-0.08376243,-1.66875,-37.48125,21.6,6.532805,0.12962954
1780237766022,0.24047868,9.12144,3.1806595,-0.027717194,0.18249062,-0.056274302,-1.66875,-37.48125,21.6,0.0,0.19297116
1780237766023,0.24047868,9.12144,3.1806595,-0.027717194,0.18249062,-0.056274302,-1.85625,-37.537502,21.581251,0.0,0.19297116
1780237766031,0.27517462,9.170493,3.5443685,-0.027717194,0.18249062,-0.056274302,-1.85625,-37.537502,21.581251,21.547316,0.19297116
