timestamp,acc_x,acc_y,acc_z,gyro_x,gyro_y,gyro_z,mag_x,mag_y,mag_z,jerk,gyro_mag
1780239218640,,,,-0.08635853,0.40384638,-0.01641652,,,,0.0,0.41330278
1780239218643,0.13519448,6.5682983,7.5352974,-0.08635853,0.40384638,-0.01641652,,,,3332.3586,0.41330278
1780239218646,0.13519448,6.5682983,7.5352974,-0.08635853,0.40384638,-0.01641652,-6.675,-49.29375,-2.1937501,0.0,0.41330278
1780239218647,-0.059820566,6.593423,7.7270226,-0.08635853,0.40384638,-0.01641652,-6.675,-49.29375,-2.1937501,160.86101,0.41330278
1780239218647,-0.059820566,6.593423,7.7270226,-0.108654454,0.35558945,0.0458899,-6.675,-49.29375,-2.1937501,0.0,0.37464052
1780239218662,-0.059820566,6.593423,7.7270226,-0.1700446,0.14301461,0.1066692,-6.675,-49.29375,-2.1937501,0.0,0.24646838
1780239218663,-0.031106694,6.550352,7.932805,-0.1700446,0.14301461,0.1066692,-6.675,-49.29375,-2.1937501,129.79698,0.24646838
1780239218663,-0.031106694,6.550352,7.932805,-0.1700446,0.14301461,0.1066692,-6.9375005,-50.006252,-2.30625,0.0,0.24646838
1780239218676,-0.031106694,6.550352,7.932805,-0.21585815,-0.083915144,0.12652174,-6.9375005,-50.006252,-2.30625,0.0,0.26390195
1780239218677,0.12323037,6.4881387,8.053643,-0.21585815,-0.083915144,0.12652174,-6.9375005,-50.006252,-2.30625,55.006977,0.26390195
1780239218677,0.12323037,6.4881387,8.053643,-0.21585815,-0.083915144,0.12652174,-7.0312505,-49.968754,-3.4125001,0.0,0.26390195
1780239218696,0.12323037,6.4881387,8.053643,-0.1996707,-0.14622156,0.11522106,-7.0312505,-49.968754,-3.4125001,0.0,0.27299273
1780239218696,0.25124636,6.5575304,8.172386,-0.1996707,-0.14622156,0.11522106,-7.0312505,-49.968754,-3.4125001,0.0,0.27299273
1780239218698,0.25124636,6.5575304,8.172386,-0.1996707,-0.14622156,0.11522106,-6.6937504,-49.8375,-3.1312501,0.0,0.27299273
1780239218715,0.25124636,6.5575304,8.172386,-0.087274805,-0.06375718,0.09292514,-6.6937504,-49.8375,-3.1312501,0.0,0.14253755
1780239218715,0.28983065,6.5611196,8.247761,-0.087274805,-0.06375718,0.09292514,-6.6937504,-49.8375,-3.1312501,0.0,0.14253755
1780239218717,0.28983065,6.5611196,8.247761,-0.087274805,-0.06375718,0.09292514,-6.8437505,-49.818752,-2.8125,0.0,0.14253755
1780239218734,0.28983065,6.5611196,8.247761,0.06024481,0.059633963,0.061161082,-6.8437505,-49.818752,-2.8125,0.0,0.10452906
1780239218734,0.21535404,6.626922,8.036893,0.06024481,0.059633963,0.061161082,-6.8437505,-49.818752,-2.8125,0.0,0.10452906
1780239218738,0.21535404,6.626922,8.036893,0.06024481,0.059633963,0.061161082,-6.76875,-49.631252,-2.5125,0.0,0.10452906
1780239218753,0.21535404,6.626922,8.036893,0.16439427,0.1790546,0.025731942,-6.76875,-49.631252,-2.5125,0.0,0.24443437
1780239218753,-0.013160525,6.559923,7.9567337,0.16439427,0.1790546,0.025731942,-6.76875,-49.631252,-2.5125,0.0,0.24443437
1780239218757,-0.013160525,6.559923,7.9567337,0.16439427,0.1790546,0.025731942,-6.8812504,-49.443752,-2.4375,0.0,0.24443437
1780239218772,-0.013160525,6.559923,7.9567337,0.25907558,0.18577392,0.0019088977,-6.8812504,-49.443752,-2.4375,0.0,0.3188036
1780239218772,-0.35682967,6.5742803,8.140083,0.25907558,0.18577392,0.0019088977,-6.8812504,-49.443752,-2.4375,0.0,0.3188036
1780239218777,-0.35682967,6.5742803,8.140083,0.25907558,0.18577392,0.0019088977,-6.7875004,-49.8375,-2.5687501,0.0,0.3188036
1780239218791,-0.35682967,6.5742803,8.140083,0.3458159,0.16561596,0.019928891,-6.7875004,-49.8375,-2.5687501,0.0,0.38394588
1780239218791,-0.5697909,6.6687965,7.9591265,0.3458159,0.16561596,0.019928891,-6.7875004,-49.8375,-2.5687501,0.0,0.38394588
1780239218798,-0.5697909,6.6687965,7.9591265,0.3458159,0.16561596,0.019928891,-6.7312503,-49.818752,-2.34375,0.0,0.38394588
1780239218810,-0.5697909,6.6687965,7.9591265,0.35467318,0.13415733,0.06513159,-6.7312503,-49.818752,-2.34375,0.0,0.38475105
1780239218811,-0.7408777,6.7262244,7.559226,0.35467318,0.13415733,0.06513159,-6.7312503,-49.818752,-2.34375,253.70311,0.38475105
1780239218817,-0.7408777,6.7262244,7.559226,0.35467318,0.13415733,0.06513159,-6.5437503,-49.443752,-2.30625,0.0,0.38475105
1780239218829,-0.7408777,6.7262244,7.559226,0.30549997,0.027564483,0.12102412,-6.5437503,-49.443752,-2.30625,0.0,0.32975274
1780239218830,-0.8644072,6.8099732,7.5640116,0.30549997,0.027564483,0.12102412,-6.5437503,-49.443752,-2.30625,68.97354,0.32975274
1780239218837,-0.8644072,6.8099732,7.5640116,0.30549997,0.027564483,0.12102412,-6.6000004,-49.29375,-1.8375001,0.0,0.32975274
1780239218848,-0.8644072,6.8099732,7.5640116,0.30855423,-0.11751174,0.1246892,-6.6000004,-49.29375,-1.8375001,0.0,0.3529336
1780239218849,-0.811466,6.769295,7.872985,0.30855423,-0.11751174,0.1246892,-6.6000004,-49.29375,-1.8375001,200.1295,0.3529336
1780239218858,-0.811466,6.769295,7.872985,0.30855423,-0.11751174,0.1246892,-6.8250003,-49.256252,-1.5187501,0.0,0.3529336
1780239218867,-0.811466,6.769295,7.872985,0.3870481,-0.109265305,0.092314295,-6.8250003,-49.256252,-1.5187501,0.0,0.41263428
1780239218868,-0.72771716,6.943971,7.643274,0.3870481,-0.109265305,0.092314295,-6.8250003,-49.256252,-1.5187501,62.49332,0.41263428
1780239218877,-0.72771716,6.943971,7.643274,0.3870481,-0.109265305,0.092314295,-6.8625,-49.162502,-1.29375,0.0,0.41263428
1780239218887,-0.72771716,6.943971,7.643274,0.40354097,0.056274302,0.06818583,-6.8625,-49.162502,-1.29375,0.0,0.41311187
1780239218887,-0.7576275,7.0758758,7.242177,0.40354097,0.056274302,0.06818583,-6.8625,-49.162502,-1.29375,0.0,0.41311187
1780239218897,-0.7576275,7.0758758,7.242177,0.40354097,0.056274302,0.06818583,-6.9375005,-49.2,-1.06875,0.0,0.41311187
1780239218905,-0.7576275,7.0758758,7.242177,0.3742203,0.15309359,0.08192989,-6.9375005,-49.2,-1.06875,0.0,0.41254213
1780239218906,-1.0043873,7.233802,7.3749785,0.3742203,0.15309359,0.08192989,-6.9375005,-49.2,-1.06875,225.78047,0.41254213
1780239218917,-1.0043873,7.233802,7.3749785,0.3742203,0.15309359,0.08192989,-6.9,-49.425003,-0.71250004,0.0,0.41254213
1780239218924,-1.0043873,7.233802,7.3749785,0.36169794,0.13354649,0.13934954,-6.9,-49.425003,-0.71250004,0.0,0.40997362
1780239218925,-0.9445667,7.5233335,7.463513,0.36169794,0.13354649,0.13934954,-6.9,-49.425003,-0.71250004,260.23672,0.40997362
1780239218937,-0.9445667,7.5233335,7.463513,0.36169794,0.13354649,0.13934954,-7.275,-49.125004,-0.24375,0.0,0.40997362
1780239218943,-0.9445667,7.5233335,7.463513,0.3537569,0.104225814,0.1830251,-7.275,-49.125004,-0.24375,0.0,0.41171002
1780239218944,-0.60687965,7.663613,7.434799,0.3537569,0.104225814,0.1830251,-7.275,-49.125004,-0.24375,55.251118,0.41171002
1780239218957,-0.60687965,7.663613,7.434799,0.3537569,0.104225814,0.1830251,-7.5937505,-49.218754,-0.20625001,0.0,0.41171002
1780239218962,-0.60687965,7.663613,7.434799,0.32718506,0.066353284,0.17202985,-7.5937505,-49.218754,-0.20625001,0.0,0.37556237
1780239218963,-0.31256247,7.474281,7.2696943,0.32718506,0.066353284,0.17202985,-7.5937505,-49.218754,-0.20625001,263.39624,0.37556237
1780239218977,-0.31256247,7.474281,7.2696943,0.32718506,0.066353284,0.17202985,-7.8375,-49.406254,0.24375,0.0,0.37556237
1780239218982,-0.31256247,7.474281,7.2696943,0.26396236,0.013820419,0.11888615,-7.8375,-49.406254,0.24375,0.0,0.28982934
1780239218983,-0.18903299,7.4036922,7.2086773,0.26396236,0.013820419,0.11888615,-7.8375,-49.406254,0.24375,96.09794,0.28982934
1780239218998,-0.18903299,7.4036922,7.2086773,0.26396236,0.013820419,0.11888615,-7.7250004,-49.612503,0.63750005,0.0,0.28982934
1780239219001,-0.18903299,7.4036922,7.2086773,0.23280916,-0.0381016,0.07276718,-7.7250004,-49.612503,0.63750005,0.0,0.24687426
1780239219002,-0.11724831,7.5364943,7.2038918,0.23280916,-0.0381016,0.07276718,-7.7250004,-49.612503,0.63750005,91.18461,0.24687426
1780239219017,-0.11724831,7.5364943,7.2038918,0.23280916,-0.0381016,0.07276718,-7.8750005,-49.631252,0.73125005,0.0,0.24687426
1780239219020,-0.11724831,7.5364943,7.2038918,0.27373594,-0.025273805,0.051387526,-7.8750005,-49.631252,0.73125005,0.0,0.27966195
1780239219021,-0.04426722,7.626524,7.062715,0.27373594,-0.025273805,0.051387526,-7.8750005,-49.631252,0.73125005,31.736372,0.27966195
1780239219037,-0.04426722,7.626524,7.062715,0.27373594,-0.025273805,0.051387526,-8.08125,-49.74375,1.1625,0.0,0.27966195
1780239219039,-0.04426722,7.626524,7.062715,0.34642676,0.037948888,0.049860407,-8.08125,-49.74375,1.1625,0.0,0.35204783
1780239219039,0.08853444,7.630113,6.7334027,0.34642676,0.037948888,0.049860407,-8.08125,-49.74375,1.1625,0.0,0.35204783
1780239219058,0.08853444,7.630113,6.7334027,0.34642676,0.037948888,0.049860407,-8.231251,-49.443752,1.1812501,0.0,0.35204783
1780239219058,0.08853444,7.630113,6.7334027,0.3742203,0.100866154,0.04680617,-8.231251,-49.443752,1.1812501,0.0,0.39039165
1780239219059,0.19142582,7.591828,6.3335023,0.3742203,0.100866154,0.04680617,-8.231251,-49.443752,1.1812501,288.0306,0.39039165
1780239219077,0.19142582,7.591828,6.3335023,0.32290915,0.120107844,0.040392276,-8.231251,-49.443752,1.1812501,0.0,0.3468829
1780239219078,0.025124637,7.5053873,5.979365,0.32290915,0.120107844,0.040392276,-8.231251,-49.443752,1.1812501,292.61206,0.3468829
1780239219079,0.025124637,7.5053873,5.979365,0.32290915,0.120107844,0.040392276,-8.15625,-49.29375,1.29375,0.0,0.3468829
1780239219096,0.025124637,7.5053873,5.979365,0.21723256,0.08284616,0.05688515,-8.15625,-49.29375,1.29375,0.0,0.23935202
1780239219097,-0.1591227,7.463513,5.8546386,0.21723256,0.08284616,0.05688515,-8.15625,-49.29375,1.29375,108.89911,0.23935202
1780239219097,-0.1591227,7.463513,5.8546386,0.21723256,0.08284616,0.05688515,-8.1,-49.3875,1.3312501,0.0,0.23935202
1780239219115,-0.1591227,7.463513,5.8546386,0.14484715,0.035200074,0.10544751,-8.1,-49.3875,1.3312501,0.0,0.18258949
1780239219116,-0.19262223,7.43121,6.0248284,0.14484715,0.035200074,0.10544751,-8.1,-49.3875,1.3312501,81.46667,0.18258949
1780239219117,-0.19262223,7.43121,6.0248284,0.14484715,0.035200074,0.10544751,-8.118751,-49.237503,1.7437501,0.0,0.18258949
1780239219134,-0.19262223,7.43121,6.0248284,0.14240377,-0.0075592347,0.1390441,-8.118751,-49.237503,1.7437501,0.0,0.19917138
1780239219135,0.059820566,7.353443,6.090631,0.14240377,-0.0075592347,0.1390441,-8.118751,-49.237503,1.7437501,20.194052,0.19917138
1780239219137,0.059820566,7.353443,6.090631,0.14240377,-0.0075592347,0.1390441,-8.025001,-49.256252,2.04375,0.0,0.19917138
1780239219153,0.059820566,7.353443,6.090631,0.15126105,-0.06986566,0.09659022,-8.025001,-49.256252,2.04375,0.0,0.19258969
1780239219154,0.35084763,7.3103724,5.8510494,0.15126105,-0.06986566,0.09659022,-8.025001,-49.256252,2.04375,178.29417,0.19258969
1780239219157,0.35084763,7.3103724,5.8510494,0.15126105,-0.06986566,0.09659022,-8.418751,-49.031254,2.1750002,0.0,0.19258969
1780239219183,0.35084763,7.3103724,5.8510494,0.14362547,-0.07902836,-0.0014507623,-8.418751,-49.031254,2.1750002,0.0,0.16393858
1780239219184,0.2958127,7.266105,5.5794644,0.14362547,-0.07902836,-0.0014507623,-8.418751,-49.031254,2.1750002,204.20741,0.16393858
1780239219184,0.2958127,7.266105,5.5794644,0.14362547,-0.07902836,-0.0014507623,-8.625,-49.2,2.2687502,0.0,0.16393858
1780239219191,0.2958127,7.266105,5.5794644,0.13812783,-0.05062397,-0.042682953,-8.625,-49.2,2.2687502,0.0,0.15317936
1780239219192,-0.20697916,7.3869424,5.3676996,0.13812783,-0.05062397,-0.042682953,-8.625,-49.2,2.2687502,32.364845,0.15317936
1780239219198,-0.20697916,7.3869424,5.3676996,0.13812783,-0.05062397,-0.042682953,-8.625,-49.0125,2.0812502,0.0,0.15317936
1780239219211,-0.20697916,7.3869424,5.3676996,0.08009735,-0.05092939,0.026342789,-8.625,-49.0125,2.0812502,0.0,0.09850548
1780239219211,-0.6332007,7.6133633,5.0192447,0.08009735,-0.05092939,0.026342789,-8.625,-49.0125,2.0812502,0.0,0.09850548
1780239219218,-0.6332007,7.6133633,5.0192447,0.08009735,-0.05092939,0.026342789,-8.55,-49.575,2.4375,0.0,0.09850548
1780239219230,-0.6332007,7.6133633,5.0192447,0.0028251687,-0.037185326,0.14515258,-8.55,-49.575,2.4375,0.0,0.14986661
1780239219231,-0.5518447,7.8023963,4.857729,0.0028251687,-0.037185326,0.14515258,-8.55,-49.575,2.4375,66.62083,0.14986661
1780239219239,-0.5518447,7.8023963,4.857729,0.0028251687,-0.037185326,0.14515258,-9.0,-49.66875,2.49375,0.0,0.14986661
1780239219249,-0.5518447,7.8023963,4.857729,-0.038712446,0.05688515,0.23158747,-9.0,-49.66875,2.49375,0.0,0.24159332
1780239219249,-0.10049855,7.9363947,4.7605205,-0.038712446,0.05688515,0.23158747,-9.0,-49.66875,2.49375,0.0,0.24159332
1780239219258,-0.10049855,7.9363947,4.7605205,-0.038712446,0.05688515,0.23158747,-8.887501,-49.29375,3.0187502,0.0,0.24159332
1780239219268,-0.10049855,7.9363947,4.7605205,-0.083609715,0.14209834,0.22456272,-8.887501,-49.29375,3.0187502,0.0,0.2785874
1780239219269,0.24765715,7.963912,4.7991047,-0.083609715,0.14209834,0.22456272,-8.887501,-49.29375,3.0187502,46.216007,0.2785874
1780239219278,0.24765715,7.963912,4.7991047,-0.083609715,0.14209834,0.22456272,-8.981251,-49.237503,3.1312501,0.0,0.2785874
1780239219287,0.24765715,7.963912,4.7991047,-0.12514733,0.18333054,0.163478,-8.981251,-49.237503,3.1312501,0.0,0.27567554
1780239219288,0.18783657,8.046464,5.1699924,-0.12514733,0.18333054,0.163478,-8.981251,-49.237503,3.1312501,264.63794,0.27567554
1780239219297,0.18783657,8.046464,5.1699924,-0.12514733,0.18333054,0.163478,-9.431251,-49.2,2.9437501,0.0,0.27567554
1780239219306,0.18783657,8.046464,5.1699924,-0.12636903,0.13171394,0.11216683,-9.431251,-49.2,2.9437501,0.0,0.21424073
1780239219307,-0.05383851,8.288439,5.645267,-0.12636903,0.13171394,0.11216683,-9.431251,-49.2,2.9437501,462.39755,0.21424073
1780239219318,-0.05383851,8.288439,5.645267,-0.12636903,0.13171394,0.11216683,-9.450001,-49.143753,3.1312501,0.0,0.21424073
1780239219326,-0.05383851,8.288439,5.645267,-0.07017108,0.025426516,0.09261972,-9.450001,-49.143753,3.1312501,0.0,0.11894915
1780239219327,-0.06699903,8.636594,5.982954,-0.07017108,0.025426516,0.09261972,-9.450001,-49.143753,3.1312501,478.2438,0.11894915
1780239219337,-0.06699903,8.636594,5.982954,-0.07017108,0.025426516,0.09261972,-9.4125,-48.825,3.3187501,0.0,0.11894915
1780239219344,-0.06699903,8.636594,5.982954,0.05993939,-0.11293039,0.091092594,-9.4125,-48.825,3.3187501,0.0,0.15698364
1780239219345,0.11006984,8.903693,6.2198434,0.05993939,-0.11293039,0.091092594,-9.4125,-48.825,3.3187501,354.887,0.15698364
1780239219358,0.11006984,8.903693,6.2198434,0.05993939,-0.11293039,0.091092594,-9.31875,-48.99375,3.35625,0.0,0.15698364
1780239219364,0.11006984,8.903693,6.2198434,0.21112408,-0.26319882,0.113693945,-9.31875,-48.99375,3.35625,0.0,0.3560524
1780239219365,0.12921242,8.935996,6.148059,0.21112408,-0.26319882,0.113693945,-9.31875,-48.99375,3.35625,14.140128,0.3560524
1780239219378,0.12921242,8.935996,6.148059,0.21112408,-0.26319882,0.113693945,-9.6,-48.750004,3.3000002,0.0,0.3560524
1780239219383,0.12921242,8.935996,6.148059,0.32718506,-0.32978117,0.11125056,-9.6,-48.750004,3.3000002,0.0,0.47768438
1780239219383,0.35324043,8.770891,5.9757752,0.32718506,-0.32978117,0.11125056,-9.6,-48.750004,3.3000002,0.0,0.47768438
1780239219397,0.35324043,8.770891,5.9757752,0.32718506,-0.32978117,0.11125056,-9.618751,-48.581253,3.3000002,0.0,0.47768438
1780239219402,0.35324043,8.770891,5.9757752,0.40170842,-0.25342527,0.046195325,-9.618751,-48.581253,3.3000002,0.0,0.47720858
1780239219402,0.61884373,8.756535,5.9470615,0.40170842,-0.25342527,0.046195325,-9.618751,-48.581253,3.3000002,0.0,0.47720858
1780239219418,0.61884373,8.756535,5.9470615,0.40170842,-0.25342527,0.046195325,-9.9375,-48.61875,3.0375001,0.0,0.47720858
1780239219420,0.61884373,8.756535,5.9470615,0.43469417,-0.26228255,-0.033825666,-9.9375,-48.61875,3.0375001,0.0,0.5088176
1780239219421,0.48006004,8.5779705,6.2342005,0.43469417,-0.26228255,-0.033825666,-9.9375,-48.61875,3.0375001,11.777877,0.5088176
1780239219437,0.48006004,8.5779705,6.2342005,0.43469417,-0.26228255,-0.033825666,-10.106251,-48.768753,3.0187502,0.0,0.5088176
1780239219439,0.48006004,8.5779705,6.2342005,0.46890163,-0.43912283,-0.053067356,-10.106251,-48.768753,3.0187502,0.0,0.64460355
1780239219440,0.0023928226,8.40808,6.501299,0.46890163,-0.43912283,-0.053067356,-10.106251,-48.768753,3.0187502,13.434409,0.64460355
1780239219458,0.0023928226,8.40808,6.501299,0.46890163,-0.43912283,-0.053067356,-10.012501,-49.10625,3.45,0.0,0.64460355
1780239219459,0.0023928226,8.40808,6.501299,0.43072367,-0.68437797,-0.016721943,-10.012501,-49.10625,3.45,0.0,0.8088113
1780239219460,-0.07537391,8.429615,6.1803617,0.43072367,-0.68437797,-0.016721943,-10.012501,-49.10625,3.45,175.59431,0.8088113
1780239219478,-0.07537391,8.429615,6.1803617,0.43072367,-0.68437797,-0.016721943,-10.200001,-49.275,3.5625002,0.0,0.8088113
1780239219479,-0.07537391,8.429615,6.1803617,0.30091864,-0.6507814,0.060550235,-10.200001,-49.275,3.5625002,0.0,0.71953785
1780239219479,0.32333016,8.715857,5.8857455,0.30091864,-0.6507814,0.060550235,-10.200001,-49.275,3.5625002,0.0,0.71953785
1780239219497,0.8895318,8.842676,6.015257,0.30091864,-0.6507814,0.060550235,-10.200001,-49.275,3.5625002,11.644576,0.71953785
1780239219497,0.8895318,8.842676,6.015257,0.107585475,-0.43179265,0.18180342,-10.200001,-49.275,3.5625002,0.0,0.4806995
1780239219498,0.8895318,8.842676,6.015257,0.107585475,-0.43179265,0.18180342,-10.21875,-49.275,3.9375002,0.0,0.4806995
1780239219516,0.8895318,8.842676,6.015257,-0.07719582,-0.30656898,0.27526304,-10.21875,-49.275,3.9375002,0.0,0.4191819
1780239219517,1.4880366,8.460722,6.6532435,-0.07719582,-0.30656898,0.27526304,-10.21875,-49.275,3.9375002,134.09996,0.4191819
1780239219518,1.4880366,8.460722,6.6532435,-0.07719582,-0.30656898,0.27526304,-10.650001,-49.256252,4.2562504,0.0,0.4191819
1780239219535,1.4880366,8.460722,6.6532435,-0.1996707,-0.2900761,0.19310409,-10.650001,-49.256252,4.2562504,0.0,0.40162385
1780239219535,1.8122641,7.6887374,7.2732835,-0.1996707,-0.2900761,0.19310409,-10.650001,-49.256252,4.2562504,0.0,0.40162385
1780239219537,1.8122641,7.6887374,7.2732835,-0.1996707,-0.2900761,0.19310409,-10.70625,-49.256252,4.14375,0.0,0.40162385
1780239219554,1.8122641,7.6887374,7.2732835,-0.22593713,-0.13675343,0.024510246,-10.70625,-49.256252,4.14375,0.0,0.26523545
1780239219555,1.6926229,7.111768,7.6552377,-0.22593713,-0.13675343,0.024510246,-10.70625,-49.256252,4.14375,152.73476,0.26523545
1780239219557,1.6926229,7.111768,7.6552377,-0.22593713,-0.13675343,0.024510246,-10.9875,-49.050003,4.4812503,0.0,0.26523545
1780239219573,1.6926229,7.111768,7.6552377,-0.19722731,0.09292514,-0.13553174,-10.9875,-49.050003,4.4812503,0.0,0.2567149
1780239219574,1.4318053,6.8889365,7.7772717,-0.19722731,0.09292514,-0.13553174,-10.9875,-49.050003,4.4812503,97.348206,0.2567149
1780239219577,1.4318053,6.8889365,7.7772717,-0.19722731,0.09292514,-0.13553174,-10.931251,-49.3875,4.6687503,0.0,0.2567149
1780239219592,1.4318053,6.8889365,7.7772717,-0.28457847,0.26274067,-0.28824356,-10.931251,-49.3875,4.6687503,0.0,0.4828063
1780239219593,1.0067801,6.5084777,7.5954175,-0.28457847,0.26274067,-0.28824356,-10.931251,-49.3875,4.6687503,434.70477,0.4828063
1780239219597,1.0067801,6.5084777,7.5954175,-0.28457847,0.26274067,-0.28824356,-10.837501,-49.18125,4.6125,0.0,0.4828063
1780239219611,1.0067801,6.5084777,7.5954175,-0.4476747,0.30641624,-0.43179265,-10.837501,-49.18125,4.6125,0.0,0.6933602
1780239219612,0.7851449,6.4701924,8.239386,-0.4476747,0.30641624,-0.43179265,-10.837501,-49.18125,4.6125,452.51273,0.6933602
1780239219617,0.7851449,6.4701924,8.239386,-0.4476747,0.30641624,-0.43179265,-10.81875,-48.73125,4.4625,0.0,0.6933602
1780239219630,0.7851449,6.4701924,8.239386,-0.43942824,0.13629529,-0.47546825,-10.81875,-48.73125,4.4625,0.0,0.661622
1780239219631,0.63200426,6.559923,9.253045,-0.43942824,0.13629529,-0.47546825,-10.81875,-48.73125,4.4625,854.4712,0.661622
1780239219637,0.63200426,6.559923,9.253045,-0.43942824,0.13629529,-0.47546825,-10.6125,-48.54375,4.40625,0.0,0.661622
1780239219650,0.63200426,6.559923,9.253045,-0.21341476,-0.1789019,-0.4131618,-10.6125,-48.54375,4.40625,0.0,0.49825135
1780239219650,0.44057846,6.5778694,9.479466,-0.21341476,-0.1789019,-0.4131618,-10.6125,-48.54375,4.40625,0.0,0.49825135
1780239219657,0.44057846,6.5778694,9.479466,-0.21341476,-0.1789019,-0.4131618,-10.6125,-48.581253,4.0125003,0.0,0.49825135
1780239219668,0.44057846,6.5778694,9.479466,0.04314109,-0.3560476,-0.268391,-10.6125,-48.581253,4.0125003,0.0,0.44795623
1780239219669,0.3400799,6.541977,8.665308,0.04314109,-0.3560476,-0.268391,-10.6125,-48.581253,4.0125003,683.73486,0.44795623
1780239219693,0.3400799,6.541977,8.665308,0.04314109,-0.3560476,-0.268391,-10.06875,-48.600002,3.7687502,0.0,0.44795623
1780239219694,0.3400799,6.541977,8.665308,0.14759597,-0.35452047,-0.18256697,-10.06875,-48.600002,3.7687502,0.0,0.4252059
1780239219694,0.7181459,6.62094,7.7270226,0.14759597,-0.35452047,-0.18256697,-10.06875,-48.600002,3.7687502,0.0,0.4252059
1780239219698,0.7181459,6.62094,7.7270226,0.14759597,-0.35452047,-0.18256697,-9.825001,-48.506252,3.7125,0.0,0.4252059
1780239219707,0.7181459,6.62094,7.7270226,0.13965495,-0.24884391,-0.18073443,-9.825001,-48.506252,3.7125,0.0,0.33777466
1780239219707,0.80548394,6.573084,7.0675006,0.13965495,-0.24884391,-0.18073443,-9.825001,-48.506252,3.7125,0.0,0.33777466
1780239219717,0.80548394,6.573084,7.0675006,0.13965495,-0.24884391,-0.18073443,-9.58125,-48.750004,3.4687502,0.0,0.33777466
1780239219726,0.80548394,6.573084,7.0675006,0.07795938,-0.10957073,-0.17554224,-9.58125,-48.750004,3.4687502,0.0,0.22113001
1780239219727,0.73011,6.599405,6.7633133,0.07795938,-0.10957073,-0.17554224,-9.58125,-48.750004,3.4687502,207.49281,0.22113001
1780239219737,0.73011,6.599405,6.7633133,0.07795938,-0.10957073,-0.17554224,-9.243751,-48.600002,3.3750002,0.0,0.22113001
1780239219745,0.73011,6.599405,6.7633133,0.036116343,-0.17340426,-0.14805411,-9.243751,-48.600002,3.3750002,0.0,0.23085375
1780239219746,0.43100718,6.5371914,6.948757,0.036116343,-0.17340426,-0.14805411,-9.243751,-48.600002,3.3750002,72.43252,0.23085375
1780239219758,0.43100718,6.5371914,6.948757,0.036116343,-0.17340426,-0.14805411,-9.0,-48.43125,3.4125001,0.0,0.23085375
1780239219764,0.43100718,6.5371914,6.948757,0.053220067,-0.36032352,-0.115984626,-9.0,-48.43125,3.4125001,0.0,0.38225368
1780239219765,0.35682967,6.7645097,7.0746794,0.053220067,-0.36032352,-0.115984626,-9.0,-48.43125,3.4125001,244.56786,0.38225368
1780239219777,0.35682967,6.7645097,7.0746794,0.053220067,-0.36032352,-0.115984626,-8.962501,-48.506252,3.54375,0.0,0.38225368
1780239219783,0.35682967,6.7645097,7.0746794,0.13293563,-0.32611609,-0.0704765,-8.962501,-48.506252,3.54375,0.0,0.35915253
1780239219784,0.39391842,6.7728844,6.843473,0.13293563,-0.32611609,-0.0704765,-8.962501,-48.506252,3.54375,158.34045,0.35915253
1780239219798,0.39391842,6.7728844,6.843473,0.13293563,-0.32611609,-0.0704765,-8.775001,-48.412502,3.6000001,0.0,0.35915253
1780239219802,0.39391842,6.7728844,6.843473,0.2022668,-0.096742935,-0.03565821,-8.775001,-48.412502,3.6000001,0.0,0.22702987
1780239219803,0.4968098,6.535995,6.2676997,0.2022668,-0.096742935,-0.03565821,-8.775001,-48.412502,3.6000001,567.21875,0.22702987
1780239219817,0.4968098,6.535995,6.2676997,0.2022668,-0.096742935,-0.03565821,-8.418751,-48.525,3.8812501,0.0,0.22702987
1780239219821,0.4968098,6.535995,6.2676997,0.13415733,0.07124006,-0.05428905,-8.418751,-48.525,3.8812501,0.0,0.16130912
1780239219822,0.65952176,6.5575304,5.9494543,0.13415733,0.07124006,-0.05428905,-8.418751,-48.525,3.8812501,190.4354,0.16130912
1780239219837,0.65952176,6.5575304,5.9494543,0.13415733,0.07124006,-0.05428905,-8.587501,-48.581253,4.0125003,0.0,0.16130912
1780239219840,0.65952176,6.5575304,5.9494543,-0.0264955,0.051692948,-0.087274805,-8.587501,-48.581253,4.0125003,0.0,0.104838274
1780239219841,0.622433,6.660422,6.059524,-0.0264955,0.051692948,-0.087274805,-8.587501,-48.581253,4.0125003,147.12906,0.104838274
1780239219858,0.622433,6.660422,6.059524,-0.0264955,0.051692948,-0.087274805,-8.625,-48.393753,4.3500004,0.0,0.104838274
1780239219860,0.622433,6.660422,6.059524,-0.13278292,-0.08269345,-0.105294794,-8.625,-48.393753,4.3500004,0.0,0.18856432
1780239219860,0.42023948,6.6484575,6.532406,-0.13278292,-0.08269345,-0.105294794,-8.625,-48.393753,4.3500004,0.0,0.18856432
1780239219878,0.42023948,6.6484575,6.532406,-0.13278292,-0.08269345,-0.105294794,-8.38125,-48.487503,4.59375,0.0,0.18856432
1780239219879,0.42023948,6.6484575,6.532406,-0.042682953,-0.18195613,-0.08544226,-8.38125,-48.487503,4.59375,0.0,0.20549999
1780239219879,0.3400799,6.6891356,6.9451675,-0.042682953,-0.18195613,-0.08544226,-8.38125,-48.487503,4.59375,0.0,0.20549999
1780239219898,0.3400799,6.6891356,6.9451675,0.15645325,-0.056427017,-0.025273805,-8.38125,-48.487503,4.59375,0.0,0.1682272
1780239219898,0.28983065,6.916454,6.6759753,0.15645325,-0.056427017,-0.025273805,-8.38125,-48.487503,4.59375,0.0,0.1682272
1780239219899,0.28983065,6.916454,6.6759753,0.15645325,-0.056427017,-0.025273805,-8.26875,-48.412502,4.70625,0.0,0.1682272
1780239219916,0.28983065,6.916454,6.6759753,0.23036577,0.110334285,0.06543701,-8.26875,-48.412502,4.70625,0.0,0.26367414
1780239219917,0.276371,7.2397842,6.104988,0.23036577,0.110334285,0.06543701,-8.26875,-48.412502,4.70625,142.90428,0.26367414
1780239219918,0.276371,7.2397842,6.104988,0.23036577,0.110334285,0.06543701,-8.0625,-48.393753,4.9875,0.0,0.26367414
1780239219936,0.276371,7.2397842,6.104988,0.14087665,0.17600037,0.15553698,-8.0625,-48.393753,4.9875,0.0,0.27388704
1780239219936,0.47048876,7.260123,5.7804613,0.14087665,0.17600037,0.15553698,-8.0625,-48.393753,4.9875,0.0,0.27388704
1780239219937,0.47048876,7.260123,5.7804613,0.14087665,0.17600037,0.15553698,-7.8375,-48.281254,5.1375003,0.0,0.27388704
1780239219955,0.47048876,7.260123,5.7804613,0.0046577104,0.16897562,0.1738624,-7.8375,-48.281254,5.1375003,0.0,0.24249245
1780239219955,0.87278205,7.1309104,5.8857455,0.0046577104,0.16897562,0.1738624,-7.8375,-48.281254,5.1375003,0.0,0.24249245
1780239219957,0.87278205,7.1309104,5.8857455,0.0046577104,0.16897562,0.1738624,-7.8375,-48.468754,5.15625,0.0,0.24249245
1780239219974,0.87278205,7.1309104,5.8857455,-0.04665346,0.120107844,0.11491564,-7.8375,-48.468754,5.15625,0.0,0.17265007
1780239219975,1.1252248,7.1249285,6.323931,-0.04665346,0.120107844,0.11491564,-7.8375,-48.468754,5.15625,305.5706,0.17265007
1780239219978,1.1252248,7.1249285,6.323931,-0.04665346,0.120107844,0.11491564,-8.1,-48.24375,5.0437503,0.0,0.17265007
1780239219993,1.1252248,7.1249285,6.323931,0.04191939,0.17874917,0.03917058,-8.1,-48.24375,5.0437503,0.0,0.18773076
1780239219994,1.1575279,7.097411,6.3921266,0.04191939,0.17874917,0.03917058,-8.1,-48.24375,5.0437503,28.601645,0.18773076
1780239219998,1.1575279,7.097411,6.3921266,0.04191939,0.17874917,0.03917058,-7.9500003,-47.9625,5.1000004,0.0,0.18773076
1780239220012,1.1575279,7.097411,6.3921266,0.13140851,0.43958095,-0.038712446,-7.9500003,-47.9625,5.1000004,0.0,0.46043268
1780239220013,0.9661021,7.0002027,5.7720866,0.13140851,0.43958095,-0.038712446,-7.9500003,-47.9625,5.1000004,497.13705,0.46043268
1780239220018,0.9661021,7.0002027,5.7720866,0.13140851,0.43958095,-0.038712446,-7.9687505,-48.24375,5.3625,0.0,0.46043268
1780239220031,0.9661021,7.0002027,5.7720866,0.10972344,0.77066016,-0.08116633,-7.9687505,-48.24375,5.3625,0.0,0.7826521
1780239220032,0.78394854,7.3749785,5.3593245,0.10972344,0.77066016,-0.08116633,-7.9687505,-48.24375,5.3625,25.940893,0.7826521
1780239220038,0.78394854,7.3749785,5.3593245,0.10972344,0.77066016,-0.08116633,-8.08125,-48.15,5.49375,0.0,0.7826521
1780239220050,0.78394854,7.3749785,5.3593245,0.033367533,0.90474117,-0.042682953,-8.08125,-48.15,5.49375,0.0,0.9063619
1780239220051,0.4657031,7.561619,5.811568,0.033367533,0.90474117,-0.042682953,-8.08125,-48.15,5.49375,398.00165,0.9063619
1780239220057,0.4657031,7.561619,5.811568,0.033367533,0.90474117,-0.042682953,-8.4375,-47.737503,5.4750004,0.0,0.9063619
1780239220069,0.4657031,7.561619,5.811568,-0.0026724567,0.68789035,0.048944138,-8.4375,-47.737503,5.4750004,0.0,0.68963456
1780239220070,0.29940194,7.4180493,6.1564336,-0.0026724567,0.68789035,0.048944138,-8.4375,-47.737503,5.4750004,96.36306,0.68963456
1780239220077,0.29940194,7.4180493,6.1564336,-0.0026724567,0.68789035,0.048944138,-8.700001,-47.90625,5.15625,0.0,0.68963456
1780239220088,0.29940194,7.4180493,6.1564336,-0.047264308,0.34734303,0.12071869,-8.700001,-47.90625,5.15625,0.0,0.370748
1780239220089,0.56141603,7.2792654,5.905187,-0.047264308,0.34734303,0.12071869,-8.700001,-47.90625,5.15625,254.51564,0.370748
1780239220097,0.56141603,7.2792654,5.905187,-0.047264308,0.34734303,0.12071869,-8.85,-48.018753,5.025,0.0,0.370748
1780239220107,0.56141603,7.2792654,5.905187,-0.07291989,0.16775393,0.110639706,-8.85,-48.018753,5.025,0.0,0.2137752
1780239220108,0.8811569,7.1428747,5.8414783,-0.07291989,0.16775393,0.110639706,-8.85,-48.018753,5.025,120.80573,0.2137752
1780239220117,0.8811569,7.1428747,5.8414783,-0.07291989,0.16775393,0.110639706,-8.94375,-47.925003,5.025,0.0,0.2137752
1780239220127,0.96490574,7.322336,6.012864,-0.07291989,0.16775393,0.110639706,-8.94375,-47.925003,5.025,25.446701,0.2137752
1780239220128,0.96490574,7.322336,6.012864,-0.021608721,0.19218782,0.04161397,-8.94375,-47.925003,5.025,0.0,0.19782521
1780239220137,0.96490574,7.322336,6.012864,-0.021608721,0.19218782,0.04161397,-8.94375,-47.925003,4.9125004,0.0,0.19782521
1780239220146,0.96490574,7.322336,6.012864,0.035200074,0.31954947,-0.005726693,-8.94375,-47.925003,4.9125004,0.0,0.32153335
1780239220147,0.65353966,7.501798,5.999704,0.035200074,0.31954947,-0.005726693,-8.94375,-47.925003,4.9125004,104.34245,0.32153335
1780239220158,0.65353966,7.501798,5.999704,0.035200074,0.31954947,-0.005726693,-9.150001,-47.925003,5.1937504,0.0,0.32153335
1780239220164,0.65353966,7.501798,5.999704,-2.2906772E-4,0.36872268,0.01901262,-9.150001,-47.925003,5.1937504,0.0,0.3692126
1780239220165,0.23808585,7.6492558,6.151648,-2.2906772E-4,0.36872268,0.01901262,-9.150001,-47.925003,5.1937504,190.77681,0.3692126
1780239220177,0.23808585,7.6492558,6.151648,-2.2906772E-4,0.36872268,0.01901262,-9.01875,-47.90625,4.8187504,0.0,0.3692126
1780239220184,0.23808585,7.6492558,6.151648,-0.08635853,0.23891763,0.08345701,-9.01875,-47.90625,4.8187504,0.0,0.26740327
1780239220185,0.11485548,7.7150583,6.7166533,-0.08635853,0.23891763,0.08345701,-9.01875,-47.90625,4.8187504,410.9087,0.26740327
1780239220207,0.11485548,7.7150583,6.7166533,-0.08635853,0.23891763,0.08345701,-9.09375,-47.737503,4.7625003,0.0,0.26740327
1780239220208,0.11485548,7.7150583,6.7166533,-0.11995513,-0.011224318,0.0962848,-9.09375,-47.737503,4.7625003,0.0,0.15422705
1780239220209,0.29222345,8.089535,7.4324064,-0.11995513,-0.011224318,0.0962848,-9.09375,-47.737503,4.7625003,759.5901,0.15422705
1780239220218,0.29222345,8.089535,7.4324064,-0.11995513,-0.011224318,0.0962848,-8.962501,-47.943752,4.96875,0.0,0.15422705
1780239220222,0.29222345,8.089535,7.4324064,-0.12636903,-0.13614258,0.106974624,-8.962501,-47.943752,4.96875,0.0,0.21435368
1780239220224,0.27996024,8.790034,7.500602,-0.12636903,-0.13614258,0.106974624,-8.962501,-47.943752,4.96875,284.62503,0.21435368
1780239220237,0.27996024,8.790034,7.500602,-0.12636903,-0.13614258,0.106974624,-9.31875,-48.05625,5.1000004,0.0,0.21435368
1780239220241,0.27996024,8.790034,7.500602,-0.22746424,-0.05764871,0.22761697,-9.31875,-48.05625,5.1000004,0.0,0.32691413
1780239220242,-0.38554356,9.022138,7.437192,-0.22746424,-0.05764871,0.22761697,-9.31875,-48.05625,5.1000004,140.05661,0.32691413
1780239220258,-0.38554356,9.022138,7.437192,-0.22746424,-0.05764871,0.22761697,-9.4125,-48.0,5.25,0.0,0.32691413
1780239220260,-0.38554356,9.022138,7.437192,-0.3713188,-0.04146126,0.4127037,-9.4125,-48.0,5.25,0.0,0.55670553
1780239220260,-0.79112697,8.627023,7.980662,-0.3713188,-0.04146126,0.4127037,-9.4125,-48.0,5.25,0.0,0.55670553
1780239220277,-0.79112697,8.627023,7.980662,-0.3713188,-0.04146126,0.4127037,-9.46875,-47.79375,5.175,0.0,0.55670553
1780239220279,-0.79112697,8.627023,7.980662,-0.38781166,-0.12026055,0.48569992,-9.46875,-47.79375,5.175,0.0,0.6330599
1780239220280,-0.3580261,8.140083,8.586345,-0.38781166,-0.12026055,0.48569992,-9.46875,-47.79375,5.175,58.099743,0.6330599
1780239220298,-0.3580261,8.140083,8.586345,-0.38781166,-0.12026055,0.48569992,-9.825001,-47.831253,5.4375,0.0,0.6330599
1780239220298,-0.3580261,8.140083,8.586345,-0.26289338,-0.12667444,0.38124505,-9.825001,-47.831253,5.4375,0.0,0.4801116
1780239220299,0.2440679,8.029715,8.479864,-0.26289338,-0.12667444,0.38124505,-9.825001,-47.831253,5.4375,156.07071,0.4801116
1780239220318,0.2440679,8.029715,8.479864,-0.16240901,0.04680617,0.19218782,-9.825001,-47.831253,5.4375,0.0,0.25593683
1780239220319,-0.0071784677,7.882556,7.9016986,-0.16240901,0.04680617,0.19218782,-9.825001,-47.831253,5.4375,519.76013,0.25593683
1780239220320,-0.0071784677,7.882556,7.9016986,-0.16240901,0.04680617,0.19218782,-9.975,-47.756252,5.3812504,0.0,0.25593683
1780239220336,-0.0071784677,7.882556,7.9016986,-0.11323581,0.30855423,0.051998373,-9.975,-47.756252,5.3812504,0.0,0.33276403
1780239220338,-0.811466,7.408478,8.156834,-0.11323581,0.30855423,0.051998373,-9.975,-47.756252,5.3812504,56.137558,0.33276403
1780239220339,-0.811466,7.408478,8.156834,-0.11323581,0.30855423,0.051998373,-10.44375,-47.568752,5.68125,0.0,0.33276403
1780239220355,-0.811466,7.408478,8.156834,0.060855657,0.383383,0.021150587,-10.44375,-47.568752,5.68125,0.0,0.38875866
1780239220356,-1.3238292,6.9702926,9.115458,0.060855657,0.383383,0.021150587,-10.44375,-47.568752,5.68125,502.26114,0.38875866
1780239220357,-1.3238292,6.9702926,9.115458,0.060855657,0.383383,0.021150587,-10.481251,-47.49375,5.64375,0.0,0.38875866
1780239220374,-1.3238292,6.9702926,9.115458,0.3702498,0.21570544,0.07368345,-10.481251,-47.49375,5.64375,0.0,0.43479076
1780239220375,-1.1491531,6.7202425,9.371789,0.3702498,0.21570544,0.07368345,-10.481251,-47.49375,5.64375,38.18226,0.43479076
1780239220378,-1.1491531,6.7202425,9.371789,0.3702498,0.21570544,0.07368345,-10.78125,-47.268753,5.6062503,0.0,0.43479076
1780239220393,-1.1491531,6.7202425,9.371789,0.67658967,0.036116343,0.09903361,-10.78125,-47.268753,5.6062503,0.0,0.6847522
1780239220394,-0.7396813,6.489335,8.510971,0.67658967,0.036116343,0.09903361,-10.78125,-47.268753,5.6062503,861.08777,0.6847522
1780239220397,-0.7396813,6.489335,8.510971,0.67658967,0.036116343,0.09903361,-10.89375,-46.95,5.7000003,0.0,0.6847522
1780239220413,-0.7396813,6.489335,8.510971,0.82136047,0.05993939,0.063604474,-10.89375,-46.95,5.7000003,0.0,0.8259972
1780239220414,-0.57936215,6.346663,7.294819,0.82136047,0.05993939,0.063604474,-10.89375,-46.95,5.7000003,1041.6469,0.8259972
1780239220418,-0.57936215,6.346663,7.294819,0.82136047,0.05993939,0.063604474,-11.0625,-46.818752,5.7937503,0.0,0.8259972
1780239220432,-0.57936215,6.346663,7.294819,0.82838523,0.21356747,0.0290916,-11.0625,-46.818752,5.7937503,0.0,0.855967
1780239220432,-0.581755,6.552745,6.389734,0.82838523,0.21356747,0.0290916,-11.0625,-46.818752,5.7937503,0.0,0.855967
1780239220438,-0.581755,6.552745,6.389734,0.82838523,0.21356747,0.0290916,-11.137501,-46.800003,6.4687505,0.0,0.855967
1780239220451,-0.581755,6.552745,6.389734,0.72362494,0.3690281,0.037643462,-11.137501,-46.800003,6.4687505,0.0,0.8131616
1780239220451,-0.5159524,6.8913293,5.750551,0.72362494,0.3690281,0.037643462,-11.137501,-46.800003,6.4687505,0.0,0.8131616
1780239220457,-0.5159524,6.8913293,5.750551,0.72362494,0.3690281,0.037643462,-11.0625,-46.3125,6.6375003,0.0,0.8131616
1780239220470,-0.5159524,6.8913293,5.750551,0.51624227,0.35558945,0.08620582,-11.0625,-46.3125,6.6375003,0.0,0.63275695
1780239220470,-0.45613182,7.19432,5.360521,0.51624227,0.35558945,0.08620582,-11.0625,-46.3125,6.6375003,0.0,0.63275695
1780239220478,-0.45613182,7.19432,5.360521,0.51624227,0.35558945,0.08620582,-10.668751,-46.443752,7.0125003,0.0,0.63275695
1780239220489,-0.45613182,7.19432,5.360521,0.2602973,0.18943901,0.16103461,-10.668751,-46.443752,7.0125003,0.0,0.35996383
1780239220489,-0.5087739,7.3043904,5.435895,0.2602973,0.18943901,0.16103461,-10.668751,-46.443752,7.0125003,0.0,0.35996383
1780239220498,-0.5087739,7.3043904,5.435895,0.2602973,0.18943901,0.16103461,-10.856251,-46.55625,7.2187505,0.0,0.35996383
1780239220508,-0.5087739,7.3043904,5.435895,0.05780142,-0.005726693,0.21478917,-10.856251,-46.55625,7.2187505,0.0,0.22250435
1780239220509,-0.35443684,7.2756763,5.849853,0.05780142,-0.005726693,0.21478917,-10.856251,-46.55625,7.2187505,223.16074,0.22250435
1780239220518,-0.35443684,7.2756763,5.849853,0.05780142,-0.005726693,0.21478917,-10.950001,-46.48125,7.6125,0.0,0.22250435
1780239220527,-0.35443684,7.2756763,5.849853,-0.0045049987,-0.019165333,0.18333054,-10.950001,-46.48125,7.6125,0.0,0.18438463
1780239220528,0.02632105,7.443174,6.5001025,-0.0045049987,-0.019165333,0.18333054,-10.950001,-46.48125,7.6125,539.46967,0.18438463
1780239220537,0.02632105,7.443174,6.5001025,-0.0045049987,-0.019165333,0.18333054,-10.931251,-46.3875,7.9500003,0.0,0.18438463
1780239220546,0.02632105,7.443174,6.5001025,0.09536853,0.097811915,0.13232478,-10.931251,-46.3875,7.9500003,0.0,0.19018984
1780239220547,0.12083755,7.5472617,6.966703,0.09536853,0.097811915,0.13232478,-10.931251,-46.3875,7.9500003,389.89447,0.19018984
1780239220558,0.12083755,7.5472617,6.966703,0.09536853,0.097811915,0.13232478,-11.0625,-46.3125,8.418751,0.0,0.19018984
1780239220565,0.12083755,7.5472617,6.966703,0.24044475,0.14942852,0.117053606,-11.0625,-46.3125,8.418751,0.0,0.30633986
1780239220566,0.032303106,7.4455667,6.859026,0.24044475,0.14942852,0.117053606,-11.0625,-46.3125,8.418751,148.41556,0.30633986
1780239220578,0.032303106,7.4455667,6.859026,0.24044475,0.14942852,0.117053606,-11.043751,-46.0875,8.55,0.0,0.30633986
1780239220585,0.032303106,7.4455667,6.859026,0.31649524,0.066353284,0.11735903,-11.043751,-46.0875,8.55,0.0,0.34401327
1780239220586,0.011964113,7.365407,6.3550377,0.31649524,0.066353284,0.11735903,-11.043751,-46.0875,8.55,395.3285,0.34401327
1780239220597,0.011964113,7.365407,6.3550377,0.31649524,0.066353284,0.11735903,-11.118751,-45.99375,8.418751,0.0,0.34401327
1780239220604,0.011964113,7.365407,6.3550377,0.32321456,-0.028633466,0.11247225,-11.118751,-45.99375,8.418751,0.0,0.34342036
1780239220604,0.101694964,7.4563346,5.8343,0.32321456,-0.028633466,0.11247225,-11.118751,-45.99375,8.418751,0.0,0.34342036
1780239220617,0.101694964,7.4563346,5.8343,0.32321456,-0.028633466,0.11247225,-10.96875,-46.18125,8.512501,0.0,0.34342036
1780239220623,0.101694964,7.4563346,5.8343,0.28198236,-0.06436803,0.08926006,-10.96875,-46.18125,8.512501,0.0,0.30269566
1780239220623,0.12801601,7.6253276,5.4035916,0.28198236,-0.06436803,0.08926006,-10.96875,-46.18125,8.512501,0.0,0.30269566
1780239220637,0.12801601,7.6253276,5.4035916,0.28198236,-0.06436803,0.08926006,-11.55,-45.9,8.681251,0.0,0.30269566
1780239220642,0.12801601,7.6253276,5.4035916,0.21051323,-0.005421269,0.08131904,-11.55,-45.9,8.681251,0.0,0.22573878
1780239220642,-0.009571291,7.7294154,5.185546,0.21051323,-0.005421269,0.08131904,-11.55,-45.9,8.681251,0.0,0.22573878
1780239220657,-0.009571291,7.7294154,5.185546,0.21051323,-0.005421269,0.08131904,-11.25,-45.600002,9.0,0.0,0.22573878
1780239220661,-0.009571291,7.7294154,5.185546,0.1546207,0.016569233,0.11125056,-11.25,-45.600002,9.0,0.0,0.19120352
1780239220662,-0.18903299,7.795218,5.494519,0.1546207,0.016569233,0.11125056,-11.25,-45.600002,9.0,231.18399,0.19120352
1780239220678,-0.18903299,7.795218,5.494519,0.1546207,0.016569233,0.11125056,-11.38125,-45.28125,9.262501,0.0,0.19120352
1780239220680,-0.18903299,7.795218,5.494519,0.17233528,-0.07780667,0.16072918,-11.38125,-45.28125,9.262501,0.0,0.24816768
1780239220680,-0.20937198,7.795218,6.0523458,0.17233528,-0.07780667,0.16072918,-11.38125,-45.28125,9.262501,0.0,0.24816768
1780239220697,-0.20937198,7.795218,6.0523458,0.17233528,-0.07780667,0.16072918,-11.700001,-45.2625,9.6,0.0,0.24816768
1780239220699,-0.20937198,7.795218,6.0523458,0.2538834,-0.18531579,0.16378342,-11.700001,-45.2625,9.6,0.0,0.35443437
1780239220700,0.0035892338,7.870592,6.1695943,0.2538834,-0.18531579,0.16378342,-11.700001,-45.2625,9.6,129.32872,0.35443437
1780239220726,0.0035892338,7.870592,6.1695943,0.2538834,-0.18531579,0.16378342,-11.6625,-45.037502,9.75,0.0,0.35443437
1780239220727,0.0035892338,7.870592,6.1695943,0.33604234,-0.15324631,0.12377293,-11.6625,-45.037502,9.75,0.0,0.3895236
1780239220727,0.08733802,7.8777704,5.9099727,0.33604234,-0.15324631,0.12377293,-11.6625,-45.037502,9.75,0.0,0.3895236
1780239220737,0.08733802,7.8777704,5.9099727,0.36872268,-0.07322531,0.07734854,-11.6625,-45.037502,9.75,0.0,0.38379833
1780239220738,-0.0047856453,7.947162,5.689534,0.36872268,-0.07322531,0.07734854,-11.6625,-45.037502,9.75,74.733734,0.38379833
1780239220739,-0.0047856453,7.947162,5.689534,0.36872268,-0.07322531,0.07734854,-11.7375,-44.71875,9.900001,0.0,0.38379833
1780239220756,-0.0047856453,7.947162,5.689534,0.393462,-0.027717194,0.06452074,-11.7375,-44.71875,9.900001,0.0,0.39967927
1780239220756,-0.083748795,8.177173,5.628517,0.393462,-0.027717194,0.06452074,-11.7375,-44.71875,9.900001,0.0,0.39967927
1780239220757,-0.083748795,8.177173,5.628517,0.393462,-0.027717194,0.06452074,-11.962501,-44.4,10.200001,0.0,0.39967927
1780239220775,-0.083748795,8.177173,5.628517,0.4130091,-0.025579229,0.07398888,-11.962501,-44.4,10.200001,0.0,0.42036316
1780239220776,-0.019142581,8.415258,5.3904314,0.4130091,-0.025579229,0.07398888,-11.962501,-44.4,10.200001,66.27846,0.42036316
1780239220777,-0.019142581,8.415258,5.3904314,0.4130091,-0.025579229,0.07398888,-12.262501,-44.0625,10.762501,0.0,0.42036316
1780239220794,-0.019142581,8.415258,5.3904314,0.39193487,-0.021914145,0.06910209,-12.262501,-44.0625,10.762501,0.0,0.39858285
1780239220795,0.061016977,8.506186,5.181957,0.39193487,-0.021914145,0.06910209,-12.262501,-44.0625,10.762501,33.18119,0.39858285
1780239220797,0.061016977,8.506186,5.181957,0.39193487,-0.021914145,0.06910209,-12.262501,-43.85625,11.00625,0.0,0.39858285
1780239220813,0.061016977,8.506186,5.181957,0.39010233,0.020845164,0.022677705,-12.262501,-43.85625,11.00625,0.0,0.39131653
1780239220814,0.08973085,8.472686,5.302794,0.39010233,0.020845164,0.022677705,-12.262501,-43.85625,11.00625,35.201073,0.39131653
1780239220818,0.08973085,8.472686,5.302794,0.39010233,0.020845164,0.022677705,-12.50625,-43.425003,11.0625,0.0,0.39131653
1780239220832,0.08973085,8.472686,5.302794,0.44630027,0.13446276,-0.017027367,-12.50625,-43.425003,11.0625,0.0,0.46642694
1780239220833,-0.1160519,8.660522,5.5052867,0.44630027,0.13446276,-0.017027367,-12.50625,-43.425003,11.0625,267.15753,0.46642694
1780239220837,-0.1160519,8.660522,5.5052867,0.44630027,0.13446276,-0.017027367,-12.618751,-43.350002,11.0625,0.0,0.46642694
1780239220851,-0.1160519,8.660522,5.5052867,0.5147152,0.22761697,0.024204822,-12.618751,-43.350002,11.0625,0.0,0.56331795
1780239220852,-0.5051847,8.873783,5.6333027,0.5147152,0.22761697,0.024204822,-12.618751,-43.350002,11.0625,260.13086,0.56331795
1780239220857,-0.5051847,8.873783,5.6333027,0.5147152,0.22761697,0.024204822,-12.431251,-43.256252,11.56875,0.0,0.56331795
1780239220870,-0.5051847,8.873783,5.6333027,0.5189911,0.21692713,0.110639706,-12.431251,-43.256252,11.56875,0.0,0.57328033
1780239220871,-0.4968098,9.086744,5.547161,0.5189911,0.21692713,0.110639706,-12.431251,-43.256252,11.56875,134.71698,0.57328033
1780239220878,-0.4968098,9.086744,5.547161,0.5189911,0.21692713,0.110639706,-12.375001,-42.9,11.981251,0.0,0.57328033
1780239220890,-0.4968098,9.086744,5.547161,0.4325562,0.17600037,0.16805935,-12.375001,-42.9,11.981251,0.0,0.49631134
1780239220890,-0.039481573,9.371789,5.3219366,0.4325562,0.17600037,0.16805935,-12.375001,-42.9,11.981251,0.0,0.49631134
1780239220897,-0.039481573,9.371789,5.3219366,0.4325562,0.17600037,0.16805935,-12.431251,-42.862503,12.337501,0.0,0.49631134
1780239220909,-0.039481573,9.371789,5.3219366,0.27007085,0.21998137,0.17416783,-12.431251,-42.862503,12.337501,0.0,0.38944125
1780239220910,0.26919255,9.261719,5.2513485,0.27007085,0.21998137,0.17416783,-12.431251,-42.862503,12.337501,127.238266,0.38944125
1780239220918,0.26919255,9.261719,5.2513485,0.27007085,0.21998137,0.17416783,-12.50625,-42.506252,12.95625,0.0,0.38944125
1780239220928,0.26919255,9.261719,5.2513485,0.10850175,0.19646375,0.15736952,-12.50625,-42.506252,12.95625,0.0,0.2741091
1780239220929,0.35204405,8.927621,5.756533,0.10850175,0.19646375,0.15736952,-12.50625,-42.506252,12.95625,21.83151,0.2741091
1780239220937,0.35204405,8.927621,5.756533,0.10850175,0.19646375,0.15736952,-12.6,-42.45,13.106251,0.0,0.2741091
1780239220947,0.35204405,8.927621,5.756533,0.01901262,0.09078717,0.18607935,-12.6,-42.45,13.106251,0.0,0.20791662
1780239220947,0.29461628,8.617452,6.029614,0.01901262,0.09078717,0.18607935,-12.6,-42.45,13.106251,0.0,0.20791662
1780239220957,0.29461628,8.617452,6.029614,0.01901262,0.09078717,0.18607935,-12.712501,-41.98125,13.293751,0.0,0.20791662
1780239220966,0.29461628,8.617452,6.029614,-0.044820916,0.024510246,0.18088715,-12.712501,-41.98125,13.293751,0.0,0.1879623
1780239220967,0.5422734,8.269296,5.979365,-0.044820916,0.024510246,0.18088715,-12.712501,-41.98125,13.293751,302.56653,0.1879623
1780239220977,0.5422734,8.269296,5.979365,-0.044820916,0.024510246,0.18088715,-12.76875,-42.112503,13.575001,0.0,0.1879623
1780239220985,0.5422734,8.269296,5.979365,-0.08574768,0.120413266,0.062382776,-12.76875,-42.112503,13.575001,0.0,0.16044822
1780239220986,0.65353966,8.026125,6.0367923,-0.08574768,0.120413266,0.062382776,-12.76875,-42.112503,13.575001,154.78134,0.16044822
1780239220997,0.65353966,8.026125,6.0367923,-0.08574768,0.120413266,0.062382776,-12.825001,-42.131252,13.593751,0.0,0.16044822
1780239221004,0.65353966,8.026125,6.0367923,-0.04573719,0.27251422,-0.07902836,-12.825001,-42.131252,13.593751,0.0,0.28740454
1780239221005,0.2862414,7.6516485,6.769295,-0.04573719,0.27251422,-0.07902836,-12.825001,-42.131252,13.593751,156.00014,0.28740454
1780239221017,0.2862414,7.6516485,6.769295,-0.04573719,0.27251422,-0.07902836,-13.087501,-42.018753,13.2375,0.0,0.28740454
1780239221023,0.2862414,7.6516485,6.769295,0.17569494,0.23830679,-0.10132429,-13.087501,-42.018753,13.2375,0.0,0.3129304
1780239221024,-0.039481573,7.8023963,7.676773,0.17569494,0.23830679,-0.10132429,-13.087501,-42.018753,13.2375,725.63165,0.3129304
1780239221037,-0.039481573,7.8023963,7.676773,0.17569494,0.23830679,-0.10132429,-13.275001,-42.318752,13.06875,0.0,0.3129304
1780239221043,-0.039481573,7.8023963,7.676773,0.48386738,0.09353599,0.013514996,-13.275001,-42.318752,13.06875,0.0,0.49301043
1780239221043,-0.04546363,7.9507513,7.4790664,0.48386738,0.09353599,0.013514996,-13.275001,-42.318752,13.06875,0.0,0.49301043
1780239221058,-0.04546363,7.9507513,7.4790664,0.48386738,0.09353599,0.013514996,-13.425,-42.412502,13.06875,0.0,0.49301043
1780239221061,-0.04546363,7.9507513,7.4790664,0.623446,0.011987877,0.1130831,-13.425,-42.412502,13.06875,0.0,0.63373214
1780239221062,0.3065804,8.028518,6.296414,0.623446,0.011987877,0.1130831,-13.425,-42.412502,13.06875,708.08026,0.63373214
1780239221078,0.3065804,8.028518,6.296414,0.623446,0.011987877,0.1130831,-13.462501,-42.581253,13.012501,0.0,0.63373214
1780239221080,0.3065804,8.028518,6.296414,0.56694263,-0.0432938,0.11613733,-13.462501,-42.581253,13.012501,0.0,0.5803328
1780239221081,0.56380886,7.841878,5.5507503,0.56694263,-0.0432938,0.11613733,-13.462501,-42.581253,13.012501,583.517,0.5803328
1780239221097,0.56380886,7.841878,5.5507503,0.56694263,-0.0432938,0.11613733,-13.5375,-42.46875,13.05,0.0,0.5803328
1780239221099,0.56380886,7.841878,5.5507503,0.4597389,-0.04573719,0.034283802,-13.5375,-42.46875,13.05,0.0,0.46327865
1780239221100,0.8258229,7.813164,5.3183475,0.4597389,-0.04573719,0.034283802,-13.5375,-42.46875,13.05,136.63959,0.46327865
1780239221118,0.8258229,7.813164,5.3183475,0.4597389,-0.04573719,0.034283802,-13.462501,-42.318752,13.181251,0.0,0.46327865
1780239221119,0.8258229,7.813164,5.3183475,0.43011284,-0.06589515,-0.08330429,-13.462501,-42.318752,13.181251,0.0,0.44303367
1780239221119,0.7073782,7.8897343,5.5675,0.43011284,-0.06589515,-0.08330429,-13.462501,-42.318752,13.181251,0.0,0.44303367
1780239221138,0.7073782,7.8897343,5.5675,0.5150206,-0.13614258,-0.1208714,-13.462501,-42.318752,13.181251,0.0,0.5462517
1780239221138,0.25962126,8.23819,5.776872,0.5150206,-0.13614258,-0.1208714,-13.462501,-42.318752,13.181251,0.0,0.5462517
1780239221139,0.25962126,8.23819,5.776872,0.5150206,-0.13614258,-0.1208714,-13.406251,-41.943752,13.593751,0.0,0.5462517
1780239221156,-0.015553347,8.423633,5.142475,0.5150206,-0.13614258,-0.1208714,-13.406251,-41.943752,13.593751,11.521675,0.5462517
1780239221157,-0.015553347,8.423633,5.142475,0.5797704,-0.18562122,-0.07872294,-13.406251,-41.943752,13.593751,0.0,0.61382914
1780239221158,-0.015553347,8.423633,5.142475,0.5797704,-0.18562122,-0.07872294,-13.1625,-41.68125,14.1,0.0,0.61382914
1780239221176,0.01794617,8.4858465,4.2927237,0.5797704,-0.18562122,-0.07872294,-13.1625,-41.68125,14.1,19.96851,0.61382914
1780239221176,0.01794617,8.4858465,4.2927237,0.49211383,-0.09827005,-0.030466007,-13.1625,-41.68125,14.1,0.0,0.5027536
1780239221177,0.01794617,8.4858465,4.2927237,0.49211383,-0.09827005,-0.030466007,-13.05,-41.30625,14.775001,0.0,0.5027536
1780239221195,0.23808585,8.348259,4.226921,0.49211383,-0.09827005,-0.030466007,-13.05,-41.30625,14.775001,8.303536,0.5027536
1780239221195,0.23808585,8.348259,4.226921,0.32199287,0.05993939,-0.020081604,-13.05,-41.30625,14.775001,0.0,0.3281393
1780239221197,0.23808585,8.348259,4.226921,0.32199287,0.05993939,-0.020081604,-12.937501,-40.8375,15.450001,0.0,0.3281393
1780239221214,0.31136605,8.130213,4.9713883,0.32199287,0.05993939,-0.020081604,-12.937501,-40.8375,15.450001,10.257945,0.3281393
1780239221217,0.31136605,8.130213,4.9713883,0.25174543,0.041003123,-0.058870405,-12.937501,-40.8375,15.450001,0.0,0.2617685
1780239221218,0.31136605,8.130213,4.9713883,0.25174543,0.041003123,-0.058870405,-12.825001,-40.443752,15.95625,0.0,0.2617685
1780239221253,0.17228323,8.096714,5.1843495,0.25174543,0.041003123,-0.058870405,-12.825001,-40.443752,15.95625,2.315385,0.2617685
1780239221254,0.17228323,8.096714,5.1843495,0.35161895,-0.112624966,-0.059786674,-12.825001,-40.443752,15.95625,0.0,0.37402502
1780239221254,0.17228323,8.096714,5.1843495,0.35161895,-0.112624966,-0.059786674,-12.675,-40.050003,15.937501,0.0,0.37402502
1780239221255,0.14955142,8.251349,4.202694,0.35161895,-0.112624966,-0.059786674,-12.675,-40.050003,15.937501,354.61996,0.37402502
1780239221255,0.14955142,8.251349,4.202694,0.42675316,-0.14897038,0.008933641,-12.675,-40.050003,15.937501,0.0,0.45209542
1780239221258,0.14955142,8.251349,4.202694,0.42675316,-0.14897038,0.008933641,-12.637501,-39.5625,16.087502,0.0,0.45209542
1780239221271,0.14955142,8.251349,4.202694,0.3302393,3.8177954E-4,0.06849125,-12.637501,-39.5625,16.087502,0.0,0.33726725
1780239221273,0.34486556,8.350652,3.3684962,0.3302393,3.8177954E-4,0.06849125,-12.637501,-39.5625,16.087502,125.072,0.33726725
1780239221277,0.34486556,8.350652,3.3684962,0.3302393,3.8177954E-4,0.06849125,-12.618751,-39.3375,16.331251,0.0,0.33726725
1780239221290,0.70378894,8.416454,3.394817,0.3302393,3.8177954E-4,0.06849125,-12.618751,-39.3375,16.331251,7.0398035,0.33726725
1780239221291,0.70378894,8.416454,3.394817,0.16561596,0.17569494,0.059023116,-12.618751,-39.3375,16.331251,0.0,0.24855801
1780239221297,0.70378894,8.416454,3.394817,0.16561596,0.17569494,0.059023116,-12.58125,-39.206253,16.5,0.0,0.24855801
1780239221309,0.70378894,8.416454,3.394817,0.04741702,0.27312508,-0.011835165,-12.58125,-39.206253,16.5,0.0,0.27746308
1780239221310,0.91585284,8.502596,3.8126638,0.04741702,0.27312508,-0.011835165,-12.58125,-39.206253,16.5,260.61914,0.27746308
1780239221318,0.91585284,8.502596,3.8126638,0.04741702,0.27312508,-0.011835165,-12.637501,-38.8125,16.800001,0.0,0.27746308
1780239221328,0.91585284,8.502596,3.8126638,0.019928891,0.24441525,-0.06772769,-12.637501,-38.8125,16.800001,0.0,0.2544072
1780239221329,0.62123656,8.635398,4.476971,0.019928891,0.24441525,-0.06772769,-12.637501,-38.8125,16.800001,383.56876,0.2544072
1780239221338,0.62123656,8.635398,4.476971,0.019928891,0.24441525,-0.06772769,-12.562501,-38.8125,16.85625,0.0,0.2544072
1780239221348,0.62123656,8.635398,4.476971,0.079181075,0.12407835,-0.03229855,-12.562501,-38.8125,16.85625,0.0,0.15069266
1780239221348,-0.07178468,8.65813,4.753342,0.079181075,0.12407835,-0.03229855,-12.562501,-38.8125,16.85625,0.0,0.15069266
1780239221357,-0.07178468,8.65813,4.753342,0.079181075,0.12407835,-0.03229855,-12.618751,-38.90625,16.575,0.0,0.15069266
1780239221367,-0.07178468,8.65813,4.753342,0.1259109,0.08009735,0.067269556,-12.618751,-38.90625,16.575,0.0,0.16368973
1780239221367,-0.25722843,8.755338,4.453043,0.1259109,0.08009735,0.067269556,-12.618751,-38.90625,16.575,0.0,0.16368973
1780239221377,-0.25722843,8.755338,4.453043,0.1259109,0.08009735,0.067269556,-12.58125,-38.68125,16.66875,0.0,0.16368973
1780239221386,-0.25722843,8.755338,4.453043,0.13171394,0.17477867,0.12652174,-12.58125,-38.68125,16.66875,0.0,0.2527922
1780239221386,0.1268196,8.815159,4.304688,0.13171394,0.17477867,0.12652174,-12.58125,-38.68125,16.66875,0.0,0.2527922
1780239221397,0.1268196,8.815159,4.304688,0.13171394,0.17477867,0.12652174,-12.618751,-38.41875,17.025002,0.0,0.2527922
1780239221405,0.1268196,8.815159,4.304688,0.145458,0.29297763,0.110334285,-12.618751,-38.41875,17.025002,0.0,0.34520656
1780239221406,0.5027919,8.7673025,4.3740797,0.145458,0.29297763,0.110334285,-12.618751,-38.41875,17.025002,0.12683868,0.34520656
1780239221417,0.5027919,8.7673025,4.3740797,0.145458,0.29297763,0.110334285,-12.50625,-38.625,17.325,0.0,0.34520656
1780239221424,0.5027919,8.7673025,4.3740797,0.17813833,0.29236677,0.048944138,-12.50625,-38.625,17.325,0.0,0.34584263
1780239221424,0.54346985,8.787642,4.5535417,0.17813833,0.29236677,0.048944138,-12.50625,-38.625,17.325,0.0,0.34584263
1780239221438,0.54346985,8.787642,4.5535417,0.17813833,0.29236677,0.048944138,-12.431251,-38.7,17.2875,0.0,0.34584263
1780239221443,0.54346985,8.787642,4.5535417,0.22273017,0.20776442,0.02817533,-12.431251,-38.7,17.2875,0.0,0.3058899
1780239221443,0.2656033,8.956335,4.506881,0.22273017,0.20776442,0.02817533,-12.431251,-38.7,17.2875,0.0,0.3058899
1780239221457,0.2656033,8.956335,4.506881,0.22273017,0.20776442,0.02817533,-12.4875,-38.381252,17.268751,0.0,0.3058899
1780239221462,0.2656033,8.956335,4.506881,0.26762745,0.19432579,0.05780142,-12.4875,-38.381252,17.268751,0.0,0.33574986
1780239221463,0.111266255,9.0951185,4.365705,0.26762745,0.19432579,0.05780142,-12.4875,-38.381252,17.268751,59.370037,0.33574986
1780239221478,0.111266255,9.0951185,4.365705,0.26762745,0.19432579,0.05780142,-12.50625,-38.287502,17.4375,0.0,0.33574986
1780239221481,0.111266255,9.0951185,4.365705,0.33207184,0.2758739,0.09750649,-12.50625,-38.287502,17.4375,0.0,0.4425897
1780239221482,0.19262223,9.119047,4.3130627,0.33207184,0.2758739,0.09750649,-12.50625,-38.287502,17.4375,0.18310545,0.4425897
1780239221497,0.19262223,9.119047,4.3130627,0.33207184,0.2758739,0.09750649,-12.900001,-38.100002,17.5125,0.0,0.4425897
1780239221500,0.19262223,9.119047,4.3130627,0.4130091,0.34551048,0.113693945,-12.900001,-38.100002,17.5125,0.0,0.55034566
1780239221501,0.42741793,9.0747795,4.179962,0.4130091,0.34551048,0.113693945,-12.900001,-38.100002,17.5125,89.112274,0.55034566
1780239221517,0.42741793,9.0747795,4.179962,0.4130091,0.34551048,0.113693945,-12.825001,-37.706253,17.962502,0.0,0.55034566
1780239221519,0.42741793,9.0747795,4.179962,0.46279314,0.38949147,0.085900396,-12.825001,-37.706253,17.962502,0.0,0.61095005
1780239221520,0.5949155,9.111869,3.856931,0.46279314,0.38949147,0.085900396,-12.825001,-37.706253,17.962502,87.903015,0.61095005
1780239221538,0.5949155,9.111869,3.856931,0.46279314,0.38949147,0.085900396,-13.14375,-37.66875,18.09375,0.0,0.61095005
1780239221539,0.5949155,9.111869,3.856931,0.4646257,0.43561044,0.042224817,-13.14375,-37.66875,18.09375,0.0,0.6382918
1780239221540,0.6308079,9.297611,3.4737802,0.4646257,0.43561044,0.042224817,-13.14375,-37.66875,18.09375,32.966614,0.6382918
1780239221558,0.55064833,9.374182,3.185445,0.4646257,0.43561044,0.042224817,-13.14375,-37.66875,18.09375,1.6365582,0.6382918
1780239221558,0.55064833,9.374182,3.185445,0.4646257,0.43561044,0.042224817,-13.181251,-37.987503,18.13125,0.0,0.6382918
1780239221559,0.55064833,9.374182,3.185445,0.40476266,0.47684264,0.011071607,-13.181251,-37.987503,18.13125,0.0,0.6255672
1780239221576,0.55064833,9.374182,3.185445,0.303362,0.4802023,-0.00633754,-13.181251,-37.987503,18.13125,0.0,0.56803423
1780239221577,0.44057846,9.401699,2.9315069,0.303362,0.4802023,-0.00633754,-13.181251,-37.987503,18.13125,57.944294,0.56803423
1780239221578,0.44057846,9.401699,2.9315069,0.303362,0.4802023,-0.00633754,-13.44375,-37.59375,18.337502,0.0,0.56803423
1780239221596,0.44057846,9.401699,2.9315069,0.18821731,0.5107447,0.008322794,-13.44375,-37.59375,18.337502,0.0,0.54438514
1780239221597,0.2440679,9.569197,2.8980074,0.18821731,0.5107447,0.008322794,-13.44375,-37.59375,18.337502,143.39638,0.54438514
1780239221597,0.2440679,9.569197,2.8980074,0.18821731,0.5107447,0.008322794,-13.743751,-37.331253,18.487501,0.0,0.54438514
1780239221614,0.2440679,9.569197,2.8980074,0.11919157,0.5009711,0.063909896,-13.743751,-37.331253,18.487501,0.0,0.5189057
1780239221615,0.038285162,9.792926,3.2093735,0.11919157,0.5009711,0.063909896,-13.743751,-37.331253,18.487501,304.10385,0.5189057
1780239221617,0.038285162,9.792926,3.2093735,0.11919157,0.5009711,0.063909896,-14.3625,-37.425003,18.487501,0.0,0.5189057
1780239221633,0.038285162,9.792926,3.2093735,0.1259109,0.40934402,0.14606886,-14.3625,-37.425003,18.487501,0.0,0.45249552
1780239221634,-0.02751746,9.88176,3.712165,0.1259109,0.40934402,0.14606886,-14.3625,-37.425003,18.487501,250.56456,0.45249552
1780239221638,-0.02751746,9.88176,3.712165,0.1259109,0.40934402,0.14606886,-14.55,-36.975002,18.225,0.0,0.45249552
1780239221653,-0.02751746,9.88176,3.712165,0.20287764,0.3342098,0.21448374,-14.55,-36.975002,18.225,0.0,0.44593588
1780239221653,0.09332009,9.783355,3.8940198,0.20287764,0.3342098,0.21448374,-14.55,-36.975002,18.225,0.0,0.44593588
1780239221657,0.09332009,9.783355,3.8940198,0.20287764,0.3342098,0.21448374,-14.512501,-36.581253,18.4125,0.0,0.44593588
1780239221672,0.09332009,9.783355,3.8940198,0.27892813,0.34306708,0.20440477,-14.512501,-36.581253,18.4125,0.0,0.4871111
1780239221672,0.34127632,9.656535,3.6894333,0.27892813,0.34306708,0.20440477,-14.512501,-36.581253,18.4125,0.0,0.4871111
1780239221677,0.34127632,9.656535,3.6894333,0.27892813,0.34306708,0.20440477,-14.887501,-36.375,18.150002,0.0,0.4871111
1780239221691,0.34127632,9.656535,3.6894333,0.34673217,0.4414135,0.12102412,-14.887501,-36.375,18.150002,0.0,0.5742089
1780239221692,0.3687938,9.686445,3.6631124,0.34673217,0.4414135,0.12102412,-14.887501,-36.375,18.150002,19.53888,0.5742089
1780239221697,0.3687938,9.686445,3.6631124,0.34673217,0.4414135,0.12102412,-14.887501,-36.075,18.056252,0.0,0.5742089
1780239221710,0.3687938,9.686445,3.6631124,0.42125553,0.43072367,0.04680617,-14.887501,-36.075,18.056252,0.0,0.6042929
1780239221711,0.16151553,9.972687,3.44387,0.42125553,0.43072367,0.04680617,-14.887501,-36.075,18.056252,189.30434,0.6042929
1780239221717,0.16151553,9.972687,3.44387,0.42125553,0.43072367,0.04680617,-15.262501,-35.53125,18.056252,0.0,0.6042929
1780239221729,0.16151553,9.972687,3.44387,0.42889112,0.41331452,0.053220067,-15.262501,-35.53125,18.056252,0.0,0.5980041
1780239221730,-0.022731815,10.20479,2.778366,0.42889112,0.41331452,0.053220067,-15.262501,-35.53125,18.056252,24.458883,0.5980041
1780239221738,-0.022731815,10.20479,2.778366,0.42889112,0.41331452,0.053220067,-15.356251,-35.268753,18.1875,0.0,0.5980041
1780239221771,-0.022731815,10.20479,2.778366,0.2951156,0.45240876,0.09872819,-15.356251,-35.268753,18.1875,0.0,0.5491031
1780239221771,-0.076570325,10.2682,2.1571295,0.2951156,0.45240876,0.09872819,-15.356251,-35.268753,18.1875,0.0,0.5491031
1780239221772,-0.076570325,10.2682,2.1571295,0.2951156,0.45240876,0.09872819,-15.6,-35.2125,18.337502,0.0,0.5491031
1780239221772,-0.076570325,10.2682,2.1571295,0.06421532,0.5367057,0.15492614,-15.6,-35.2125,18.337502,0.0,0.5622977
1780239221773,-0.2009971,9.869795,2.1894326,0.06421532,0.5367057,0.15492614,-15.6,-35.2125,18.337502,380.89655,0.5622977
1780239221777,-0.2009971,9.869795,2.1894326,0.06421532,0.5367057,0.15492614,-15.468751,-34.912502,18.54375,0.0,0.5622977
1780239221786,-0.2009971,9.869795,2.1894326,-0.06956023,0.5730511,0.15492614,-15.468751,-34.912502,18.54375,0.0,0.59768575
1780239221787,-0.22971097,9.309576,3.185445,-0.06956023,0.5730511,0.15492614,-15.468751,-34.912502,18.54375,269.56366,0.59768575
1780239221797,-0.22971097,9.309576,3.185445,-0.06956023,0.5730511,0.15492614,-15.918751,-35.15625,18.75,0.0,0.59768575
1780239221805,-0.22971097,9.309576,3.185445,0.02481567,0.5058579,0.10483666,-15.918751,-35.15625,18.75,0.0,0.5172028
1780239221806,-0.02751746,9.159725,3.972983,0.02481567,0.5058579,0.10483666,-15.918751,-35.15625,18.75,142.12799,0.5172028
1780239221817,-0.02751746,9.159725,3.972983,0.02481567,0.5058579,0.10483666,-16.143751,-35.006252,18.69375,0.0,0.5172028
1780239221824,-0.02751746,9.159725,3.972983,0.20257223,0.3830776,0.07032379,-16.143751,-35.006252,18.69375,0.0,0.43900955
1780239221825,-0.025124637,9.123833,4.0567317,0.20257223,0.3830776,0.07032379,-16.143751,-35.006252,18.69375,0.8068084,0.43900955
1780239221838,-0.025124637,9.123833,4.0567317,0.20257223,0.3830776,0.07032379,-16.1625,-35.0625,18.581251,0.0,0.43900955
1780239221844,-0.025124637,9.123833,4.0567317,0.2838149,0.18974443,0.08009735,-16.1625,-35.0625,18.581251,0.0,0.35066998
1780239221844,-0.5243273,8.895318,3.7253258,0.2838149,0.18974443,0.08009735,-16.1625,-35.0625,18.581251,0.0,0.35066998
1780239221857,-0.5243273,8.895318,3.7253258,0.2838149,0.18974443,0.08009735,-16.40625,-35.006252,18.806252,0.0,0.35066998
1780239221862,-0.5243273,8.895318,3.7253258,0.2850366,0.06482617,0.15156648,-16.40625,-35.006252,18.806252,0.0,0.329273
1780239221863,-0.93619186,8.744571,3.5970106,0.2850366,0.06482617,0.15156648,-16.40625,-35.006252,18.806252,156.4312,0.329273
1780239221878,-0.93619186,8.744571,3.5970106,0.2850366,0.06482617,0.15156648,-16.59375,-34.95,18.88125,0.0,0.329273
1780239221882,-0.93619186,8.744571,3.5970106,0.32077116,0.13049224,0.23616882,-16.59375,-34.95,18.88125,0.0,0.41916353
1780239221882,-0.76600236,8.707481,3.670291,0.32077116,0.13049224,0.23616882,-16.59375,-34.95,18.88125,0.0,0.41916353
1780239221897,-0.76600236,8.707481,3.670291,0.32077116,0.13049224,0.23616882,-16.987501,-35.081253,18.73125,0.0,0.41916353
1780239221900,-0.76600236,8.707481,3.670291,0.4010976,0.26304612,0.2902288,-16.987501,-35.081253,18.73125,0.0,0.56062937
1780239221901,-0.3580261,8.589934,3.679862,0.4010976,0.26304612,0.2902288,-16.987501,-35.081253,18.73125,128.582,0.56062937
1780239221917,-0.3580261,8.589934,3.679862,0.4010976,0.26304612,0.2902288,-17.23125,-34.818752,18.84375,0.0,0.56062937
1780239221920,-0.3580261,8.589934,3.679862,0.445384,0.2526617,0.30244574,-17.23125,-34.818752,18.84375,0.0,0.59470856
1780239221920,-0.0059820567,8.461918,3.3661032,0.445384,0.2526617,0.30244574,-17.23125,-34.818752,18.84375,0.0,0.59470856
1780239221938,-0.0059820567,8.461918,3.3661032,0.445384,0.2526617,0.30244574,-17.681252,-34.29375,18.73125,0.0,0.59470856
1780239221939,-0.0059820567,8.461918,3.3661032,0.37605286,0.09750649,0.25907558,-17.681252,-34.29375,18.73125,0.0,0.4669512
1780239221940,0.25244278,8.516953,2.9374888,0.37605286,0.09750649,0.25907558,-17.681252,-34.29375,18.73125,94.0237,0.4669512
1780239221957,0.25244278,8.516953,2.9374888,0.37605286,0.09750649,0.25907558,-17.90625,-33.881252,18.712502,0.0,0.4669512
1780239221958,0.35443684,8.755338,2.455036,0.37605286,0.09750649,0.25907558,-17.90625,-33.881252,18.712502,87.103836,0.4669512
1780239221959,0.35443684,8.755338,2.455036,0.2190651,-0.057343286,0.1918824,-17.90625,-33.881252,18.712502,0.0,0.29681075
1780239221977,0.35443684,8.755338,2.455036,0.01809635,-0.08055548,0.14393088,-17.90625,-33.881252,18.712502,0.0,0.16593
1780239221978,0.43459642,8.980264,2.164308,0.01809635,-0.08055548,0.14393088,-17.90625,-33.881252,18.712502,147.6755,0.16593
1780239221979,0.43459642,8.980264,2.164308,0.01809635,-0.08055548,0.14393088,-18.09375,-33.75,18.618752,0.0,0.16593
1780239221996,0.43459642,8.980264,2.164308,-0.13919681,-0.04421007,0.110945135,-18.09375,-33.75,18.618752,0.0,0.18340966
1780239221997,0.520738,8.965906,2.3353949,-0.13919681,-0.04421007,0.110945135,-18.09375,-33.75,18.618752,32.086372,0.18340966
1780239221998,0.520738,8.965906,2.3353949,-0.13919681,-0.04421007,0.110945135,-18.487501,-33.375,18.54375,0.0,0.18340966
1780239222015,0.520738,8.965906,2.3353949,-0.21280392,-0.07872294,0.08192989,-18.487501,-33.375,18.54375,0.0,0.24123706
1780239222016,0.5051847,8.842676,2.559423,-0.21280392,-0.07872294,0.08192989,-18.487501,-33.375,18.54375,60.214993,0.24123706
1780239222018,0.5051847,8.842676,2.559423,-0.21280392,-0.07872294,0.08192989,-18.900002,-33.35625,18.581251,0.0,0.24123706
1780239222034,0.5051847,8.842676,2.559423,-0.25586864,-0.112624966,0.01718008,-18.900002,-33.35625,18.581251,0.0,0.28008625
1780239222035,0.53389853,8.891729,2.7149563,-0.25586864,-0.112624966,0.01718008,-18.900002,-33.35625,18.581251,92.81921,0.28008625
1780239222038,0.53389853,8.891729,2.7149563,-0.25586864,-0.112624966,0.01718008,-18.975,-33.225002,18.431252,0.0,0.28008625
1780239222053,0.53389853,8.891729,2.7149563,-0.24945475,-0.057037864,-0.06772769,-18.975,-33.225002,18.431252,0.0,0.26470366
1780239222054,0.47168517,9.069994,2.896811,-0.24945475,-0.057037864,-0.06772769,-18.975,-33.225002,18.431252,220.73935,0.26470366
1780239222057,0.47168517,9.069994,2.896811,-0.24945475,-0.057037864,-0.06772769,-19.0125,-33.018753,18.393751,0.0,0.26470366
1780239222072,0.47168517,9.069994,2.896811,-0.19234054,0.08651124,-0.12362021,-19.0125,-33.018753,18.393751,0.0,0.2444607
1780239222073,0.30299118,9.193225,3.1866415,-0.19234054,0.08651124,-0.12362021,-19.0125,-33.018753,18.393751,201.53331,0.2444607
1780239222077,0.30299118,9.193225,3.1866415,-0.19234054,0.08651124,-0.12362021,-18.993752,-33.037502,18.16875,0.0,0.2444607
1780239222092,0.30299118,9.193225,3.1866415,-0.08910734,0.13843326,-0.10957073,-18.993752,-33.037502,18.16875,0.0,0.19776155
1780239222093,-0.008374879,9.236296,3.5060835,-0.08910734,0.13843326,-0.10957073,-18.993752,-33.037502,18.16875,144.79446,0.19776155
1780239222097,-0.008374879,9.236296,3.5060835,-0.08910734,0.13843326,-0.10957073,-18.806252,-33.581253,18.018751,0.0,0.19776155
1780239222110,-0.008374879,9.236296,3.5060835,0.011987877,0.027869906,-0.039017867,-18.806252,-33.581253,18.018751,0.0,0.049425043
1780239222111,-0.11246266,9.268898,3.4127634,0.011987877,0.027869906,-0.039017867,-18.806252,-33.581253,18.018751,1.507759,0.049425043
1780239222118,-0.11246266,9.268898,3.4127634,0.011987877,0.027869906,-0.039017867,-18.768751,-33.6375,18.0,0.0,0.049425043
1780239222130,-0.11246266,9.268898,3.4127634,0.038865156,-0.10376768,0.01565296,-18.768751,-33.6375,18.0,0.0,0.11190731
1780239222131,0.096909314,9.262916,2.9398818,0.038865156,-0.10376768,0.01565296,-18.768751,-33.6375,18.0,159.11769,0.11190731
1780239222138,0.096909314,9.262916,2.9398818,0.038865156,-0.10376768,0.01565296,-18.9375,-33.5625,17.868752,0.0,0.11190731
1780239222149,0.096909314,9.262916,2.9398818,-0.0066429637,-0.15660596,0.009544488,-18.9375,-33.5625,17.868752,0.0,0.15703711
1780239222149,0.37477586,9.236296,2.5893333,-0.0066429637,-0.15660596,0.009544488,-18.9375,-33.5625,17.868752,0.0,0.15703711
1780239222157,0.37477586,9.236296,2.5893333,-0.0066429637,-0.15660596,0.009544488,-19.0125,-33.768753,18.09375,0.0,0.15703711
1780239222168,0.37477586,9.236296,2.5893333,-0.059481252,-0.14622156,-0.036879905,-19.0125,-33.768753,18.09375,0.0,0.16210766
1780239222169,0.43100718,9.233903,2.5821548,-0.059481252,-0.14622156,-0.036879905,-19.0125,-33.768753,18.09375,1.8749236,0.16210766
1780239222177,0.43100718,9.233903,2.5821548,-0.059481252,-0.14622156,-0.036879905,-18.91875,-33.45,18.0375,0.0,0.16210766
1780239222187,0.43100718,9.233903,2.5821548,-0.08177718,-0.16149275,-0.050013117,-18.91875,-33.45,18.0375,0.0,0.1877997
1780239222187,0.22971097,9.389735,2.6132615,-0.08177718,-0.16149275,-0.050013117,-18.91875,-33.45,18.0375,0.0,0.1877997
1780239222197,0.22971097,9.389735,2.6132615,-0.08177718,-0.16149275,-0.050013117,-19.237501,-33.225002,18.206251,0.0,0.1877997
1780239222206,0.22971097,9.389735,2.6132615,-0.09796463,-0.21585815,-0.020387027,-19.237501,-33.225002,18.206251,0.0,0.23792318
1780239222206,0.13040884,9.532108,2.5295126,-0.09796463,-0.21585815,-0.020387027,-19.237501,-33.225002,18.206251,0.0,0.23792318
1780239222217,0.13040884,9.532108,2.5295126,-0.09796463,-0.21585815,-0.020387027,-19.29375,-33.206253,17.98125,0.0,0.23792318
1780239222225,0.13040884,9.532108,2.5295126,-0.10895988,-0.26289338,0.021150587,-19.29375,-33.206253,17.98125,0.0,0.28536385
1780239222226,0.24765715,9.559626,2.353341,-0.10895988,-0.26289338,0.021150587,-19.29375,-33.206253,17.98125,14.739989,0.28536385
1780239222238,0.24765715,9.559626,2.353341,-0.10895988,-0.26289338,0.021150587,-19.050001,-33.075,18.0375,0.0,0.28536385
1780239222244,0.24765715,9.559626,2.353341,-0.14011309,-0.2500656,0.0104607595,-19.050001,-33.075,18.0375,0.0,0.2868343
1780239222245,0.48364928,9.47827,2.3341985,-0.14011309,-0.2500656,0.0104607595,-19.050001,-33.075,18.0375,74.71371,0.2868343
1780239222258,0.48364928,9.47827,2.3341985,-0.14011309,-0.2500656,0.0104607595,-18.862501,-32.79375,17.962502,0.0,0.2868343
1780239222288,0.48364928,9.47827,2.3341985,-0.14102936,-0.20425205,-0.05428905,-18.862501,-32.79375,17.962502,0.0,0.2540777
1780239222288,0.5458627,9.4686985,2.6371896,-0.14102936,-0.20425205,-0.05428905,-18.862501,-32.79375,17.962502,0.0,0.2540777
1780239222289,0.5458627,9.4686985,2.6371896,-0.14102936,-0.20425205,-0.05428905,-18.84375,-32.71875,18.0,0.0,0.2540777
1780239222289,0.5458627,9.4686985,2.6371896,-0.10743276,-0.19631104,-0.10895988,-18.84375,-32.71875,18.0,0.0,0.24890174
1780239222289,0.3281158,9.544072,2.929114,-0.10743276,-0.19631104,-0.10895988,-18.84375,-32.71875,18.0,0.0,0.24890174
1780239222297,0.3281158,9.544072,2.929114,-0.10743276,-0.19631104,-0.10895988,-18.675001,-32.60625,17.90625,0.0,0.24890174
1780239222302,0.3281158,9.544072,2.929114,-0.053067356,-0.25831205,-0.10101887,-18.675001,-32.60625,17.90625,0.0,0.2823935
1780239222303,0.05623133,9.636196,3.0523443,-0.053067356,-0.25831205,-0.10101887,-18.675001,-32.60625,17.90625,119.39906,0.2823935
1780239222318,0.05623133,9.636196,3.0523443,-0.053067356,-0.25831205,-0.10101887,-18.50625,-32.34375,17.868752,0.0,0.2823935
1780239222320,0.05623133,9.636196,3.0523443,-0.0045049987,-0.36429402,-0.05612159,-18.50625,-32.34375,17.868752,0.0,0.3686191
1780239222321,0.04426722,9.631411,2.8513472,-0.0045049987,-0.36429402,-0.05612159,-18.50625,-32.34375,17.868752,63.516613,0.3686191
1780239222338,0.04426722,9.631411,2.8513472,-0.0045049987,-0.36429402,-0.05612159,-18.393751,-32.5125,17.831251,0.0,0.3686191
1780239222340,0.04426722,9.631411,2.8513472,0.0052685575,-0.4259896,-0.02741177,-18.393751,-32.5125,17.831251,0.0,0.42690316
1780239222341,0.26679972,9.542876,2.4634109,0.0052685575,-0.4259896,-0.02741177,-18.393751,-32.5125,17.831251,185.39714,0.42690316
1780239222357,0.26679972,9.542876,2.4634109,0.0052685575,-0.4259896,-0.02741177,-17.962502,-33.05625,17.7,0.0,0.42690316
1780239222358,0.26679972,9.542876,2.4634109,-0.03993414,-0.3795652,-0.047264308,-17.962502,-33.05625,17.7,0.0,0.3845756
1780239222359,0.48963133,9.475877,2.2767708,-0.03993414,-0.3795652,-0.047264308,-17.962502,-33.05625,17.7,101.4614,0.3845756
1780239222378,0.48963133,9.475877,2.2767708,-0.124841906,-0.34352523,-0.07933379,-17.962502,-33.05625,17.7,0.0,0.37401727
1780239222378,0.35563326,9.541679,2.43709,-0.124841906,-0.34352523,-0.07933379,-17.962502,-33.05625,17.7,0.0,0.37401727
1780239222379,0.35563326,9.541679,2.43709,-0.124841906,-0.34352523,-0.07933379,-17.60625,-33.16875,17.8125,0.0,0.37401727
1780239222397,0.35563326,9.541679,2.43709,-0.16637953,-0.4000286,-0.058259558,-17.60625,-33.16875,17.8125,0.0,0.43714893
1780239222397,0.010767702,9.6529455,2.975774,-0.16637953,-0.4000286,-0.058259558,-17.60625,-33.16875,17.8125,0.0,0.43714893
1780239222398,0.010767702,9.6529455,2.975774,-0.16637953,-0.4000286,-0.058259558,-17.71875,-33.3375,18.056252,0.0,0.43714893
1780239222416,0.010767702,9.6529455,2.975774,-0.12575819,-0.5338041,-0.008780929,-17.71875,-33.3375,18.056252,0.0,0.54848796
1780239222417,0.032303106,9.691231,3.2775688,-0.12575819,-0.5338041,-0.008780929,-17.71875,-33.3375,18.056252,129.29248,0.54848796
1780239222417,0.032303106,9.691231,3.2775688,-0.12575819,-0.5338041,-0.008780929,-17.868752,-33.3375,18.487501,0.0,0.54848796
1780239222435,0.032303106,9.691231,3.2775688,-0.06253549,-0.6171848,-0.00633754,-17.868752,-33.3375,18.487501,0.0,0.6203773
1780239222436,0.3699902,9.686445,3.1016963,-0.06253549,-0.6171848,-0.00633754,-17.868752,-33.3375,18.487501,52.86121,0.6203773
1780239222438,0.3699902,9.686445,3.1016963,-0.06253549,-0.6171848,-0.00633754,-17.5125,-33.600002,18.806252,0.0,0.6203773
1780239222455,0.3699902,9.686445,3.1016963,-0.04359922,-0.58969665,-0.0704765,-17.5125,-33.600002,18.806252,0.0,0.59549135
1780239222456,0.6559325,9.823135,2.7891338,-0.04359922,-0.58969665,-0.0704765,-17.5125,-33.600002,18.806252,54.81815,0.59549135
1780239222457,0.6559325,9.823135,2.7891338,-0.04359922,-0.58969665,-0.0704765,-17.4375,-33.91875,19.29375,0.0,0.59549135
1780239222473,0.6559325,9.823135,2.7891338,-0.052151084,-0.44095537,-0.1440836,-17.4375,-33.91875,19.29375,0.0,0.4668206
1780239222474,0.6906284,9.912866,2.8776684,-0.052151084,-0.44095537,-0.1440836,-17.4375,-33.91875,19.29375,112.71285,0.4668206
1780239222478,0.6906284,9.912866,2.8776684,-0.052151084,-0.44095537,-0.1440836,-17.1,-33.91875,19.800001,0.0,0.4668206
1780239222492,0.6906284,9.912866,2.8776684,-0.012446013,-0.38628453,-0.20516832,-17.1,-33.91875,19.800001,0.0,0.43756676
1780239222493,0.7588239,10.069596,3.3003006,-0.012446013,-0.38628453,-0.20516832,-17.1,-33.91875,19.800001,278.5883,0.43756676
1780239222498,0.7588239,10.069596,3.3003006,-0.012446013,-0.38628453,-0.20516832,-16.7625,-33.9,19.6875,0.0,0.43756676
1780239222511,0.7588239,10.069596,3.3003006,0.043751936,-0.46874893,-0.22929679,-16.7625,-33.9,19.6875,0.0,0.52365714
1780239222512,0.79112697,10.196416,3.2500513,0.043751936,-0.46874893,-0.22929679,-16.7625,-33.9,19.6875,107.28454,0.52365714
1780239222517,0.79112697,10.196416,3.2500513,0.043751936,-0.46874893,-0.22929679,-16.556252,-33.600002,19.931252,0.0,0.52365714
1780239222530,0.79112697,10.196416,3.2500513,0.016263809,-0.57137126,-0.19570018,-16.556252,-33.600002,19.931252,0.0,0.6041756
1780239222531,0.55423754,9.965508,2.821437,0.016263809,-0.57137126,-0.19570018,-16.556252,-33.600002,19.931252,359.0269,0.6041756
1780239222537,0.55423754,9.965508,2.821437,0.016263809,-0.57137126,-0.19570018,-16.275002,-33.862503,20.175001,0.0,0.6041756
1780239222549,0.55423754,9.965508,2.821437,-0.115373775,-0.642535,-0.08971819,-16.275002,-33.862503,20.175001,0.0,0.6589474
1780239222550,0.3293122,9.546465,2.559423,-0.115373775,-0.642535,-0.08971819,-16.275002,-33.862503,20.175001,482.94257,0.6589474
1780239222557,0.3293122,9.546465,2.559423,-0.115373775,-0.642535,-0.08971819,-16.03125,-34.3125,19.893751,0.0,0.6589474
1780239222568,0.3293122,9.546465,2.559423,-0.2912978,-0.7534037,0.0092390645,-16.03125,-34.3125,19.893751,0.0,0.80780995
1780239222569,0.61764735,8.904889,2.8597221,-0.2912978,-0.7534037,0.0092390645,-16.03125,-34.3125,19.893751,515.9063,0.80780995
1780239222578,0.61764735,8.904889,2.8597221,-0.2912978,-0.7534037,0.0092390645,-15.750001,-34.425003,19.95,0.0,0.80780995
1780239222587,0.61764735,8.904889,2.8597221,-0.3780381,-0.9626953,0.03672719,-15.750001,-34.425003,19.95,0.0,1.0349125
1780239222588,1.0737791,8.427222,3.3314073,-0.3780381,-0.9626953,0.03672719,-15.750001,-34.425003,19.95,247.9782,1.0349125
1780239222598,1.0737791,8.427222,3.3314073,-0.3780381,-0.9626953,0.03672719,-15.656251,-34.10625,19.743752,0.0,1.0349125
1780239222607,1.0737791,8.427222,3.3314073,-0.34505233,-1.1377031,-0.02985516,-15.656251,-34.10625,19.743752,0.0,1.1892521
1780239222607,1.5215361,8.414062,3.6607196,-0.34505233,-1.1377031,-0.02985516,-15.656251,-34.10625,19.743752,0.0,1.1892521
1780239222618,1.5215361,8.414062,3.6607196,-0.34505233,-1.1377031,-0.02985516,-15.20625,-34.050003,19.743752,0.0,1.1892521
1780239222626,1.5215361,8.414062,3.6607196,-0.2912978,-1.2323843,-0.23571068,-15.20625,-34.050003,19.743752,0.0,1.2880936
1780239222627,1.7500507,8.619844,3.3003006,-0.2912978,-1.2323843,-0.23571068,-15.20625,-34.050003,19.743752,93.283646,1.2880936
1780239222637,1.7500507,8.619844,3.3003006,-0.2912978,-1.2323843,-0.23571068,-14.812501,-34.2,19.612501,0.0,1.2880936
1780239222645,1.7500507,8.619844,3.3003006,-0.28091338,-1.017366,-0.40705335,-14.812501,-34.2,19.612501,0.0,1.131211
1780239222645,1.1886346,9.211171,3.1304102,-0.28091338,-1.017366,-0.40705335,-14.812501,-34.2,19.612501,0.0,1.131211
1780239222657,1.1886346,9.211171,3.1304102,-0.28091338,-1.017366,-0.40705335,-14.64375,-34.18125,19.987501,0.0,1.131211
1780239222664,1.1886346,9.211171,3.1304102,-0.29068694,-0.6907919,-0.3911713,-14.64375,-34.18125,19.987501,0.0,0.8454037
1780239222664,0.71455663,9.442377,3.1579278,-0.29068694,-0.6907919,-0.3911713,-14.64375,-34.18125,19.987501,0.0,0.8454037
1780239222678,0.71455663,9.442377,3.1579278,-0.29068694,-0.6907919,-0.3911713,-14.156251,-34.40625,19.875,0.0,0.8454037
1780239222683,0.71455663,9.442377,3.1579278,-0.32855946,-0.50417805,-0.30534726,-14.156251,-34.40625,19.875,0.0,0.6748213
1780239222684,0.7193423,9.34786,3.6906297,-0.32855946,-0.50417805,-0.30534726,-14.156251,-34.40625,19.875,93.68514,0.6748213
1780239222697,0.7193423,9.34786,3.6906297,-0.32855946,-0.50417805,-0.30534726,-13.63125,-34.068752,19.931252,0.0,0.6748213
1780239222702,1.0666007,9.11785,4.506881,-0.32855946,-0.50417805,-0.30534726,-13.63125,-34.068752,19.931252,30.184555,0.6748213
1780239222703,1.0666007,9.11785,4.506881,-0.30473644,-0.50142926,-0.23357272,-13.63125,-34.068752,19.931252,0.0,0.63154715
1780239222717,1.0666007,9.11785,4.506881,-0.30473644,-0.50142926,-0.23357272,-12.975,-33.75,20.19375,0.0,0.63154715
1780239222721,1.3405789,8.914461,4.9462633,-0.30473644,-0.50142926,-0.23357272,-12.975,-33.75,20.19375,13.963222,0.63154715
1780239222722,1.3405789,8.914461,4.9462633,-0.23509984,-0.6700231,-0.25556323,-12.975,-33.75,20.19375,0.0,0.75466245
1780239222738,1.3405789,8.914461,4.9462633,-0.23509984,-0.6700231,-0.25556323,-12.431251,-33.84375,19.96875,0.0,0.75466245
1780239222740,1.3405789,8.914461,4.9462633,-0.14255647,-0.79738474,-0.29740626,-12.431251,-33.84375,19.96875,0.0,0.8628993
1780239222741,1.2077773,8.94796,5.0216374,-0.14255647,-0.79738474,-0.29740626,-12.431251,-33.84375,19.96875,49.05605,0.8628993
1780239222757,1.2077773,8.94796,5.0216374,-0.14255647,-0.79738474,-0.29740626,-11.887501,-34.0125,20.456251,0.0,0.8628993
1780239222759,1.2077773,8.94796,5.0216374,-0.04573719,-0.79249793,-0.26258796,-11.887501,-34.0125,20.456251,0.0,0.83612037
1780239222760,1.0139586,9.08794,4.8565326,-0.04573719,-0.79249793,-0.26258796,-11.887501,-34.0125,20.456251,22.38941,0.83612037
1780239222820,1.0139586,9.08794,4.8565326,-0.04573719,-0.79249793,-0.26258796,-11.25,-34.237503,20.212502,0.0,0.83612037
1780239222821,1.0139586,9.08794,4.8565326,0.017485503,-0.6892648,-0.16027105,-11.25,-34.237503,20.212502,0.0,0.707869
1780239222821,0.96849495,9.12144,4.5212383,0.017485503,-0.6892648,-0.16027105,-11.25,-34.237503,20.212502,0.0,0.707869
1780239222822,0.96849495,9.12144,4.5212383,0.022066858,-0.5851153,-0.056427017,-11.25,-34.237503,20.212502,0.0,0.5882439
1780239222822,1.0462617,8.957532,4.2723846,0.022066858,-0.5851153,-0.056427017,-11.25,-34.237503,20.212502,0.0,0.5882439
1780239222823,1.0462617,8.957532,4.2723846,0.022066858,-0.5851153,-0.056427017,-10.931251,-34.40625,20.1,0.0,0.5882439
1780239222823,1.0462617,8.957532,4.2723846,-0.013667707,-0.5915292,0.007406523,-10.931251,-34.40625,20.1,0.0,0.5917334
1780239222823,1.1958131,8.738588,4.118945,-0.013667707,-0.5915292,0.007406523,-10.931251,-34.40625,20.1,0.0,0.5917334
1780239222824,1.1958131,8.738588,4.118945,-0.013667707,-0.5915292,0.007406523,-10.481251,-34.612503,19.931252,0.0,0.5917334
1780239222847,1.1958131,8.738588,4.118945,-0.09796463,-0.6932353,0.008322794,-10.481251,-34.612503,19.931252,0.0,0.7001725
1780239222847,1.3154542,8.574381,3.8808591,-0.09796463,-0.6932353,0.008322794,-10.481251,-34.612503,19.931252,0.0,0.7001725
1780239222848,1.3154542,8.574381,3.8808591,-0.09796463,-0.6932353,0.008322794,-10.387501,-34.537502,19.931252,0.0,0.7001725
1780239222854,1.3154542,8.574381,3.8808591,-0.21372019,-0.7912763,-0.04512634,-10.387501,-34.537502,19.931252,0.0,0.820872
1780239222855,1.2855439,8.4451685,3.8066816,-0.21372019,-0.7912763,-0.04512634,-10.387501,-34.537502,19.931252,151.00002,0.820872
1780239222857,1.2855439,8.4451685,3.8066816,-0.21372019,-0.7912763,-0.04512634,-10.462501,-34.425003,20.081251,0.0,0.820872
1780239222882,1.2855439,8.4451685,3.8066816,-0.2836622,-0.85205555,-0.11140327,-10.462501,-34.425003,20.081251,0.0,0.90491635
1780239222882,1.1431711,8.42124,3.8533418,-0.2836622,-0.85205555,-0.11140327,-10.462501,-34.425003,20.081251,0.0,0.90491635
1780239222883,1.1431711,8.42124,3.8533418,-0.2836622,-0.85205555,-0.11140327,-10.33125,-34.40625,20.00625,0.0,0.90491635
1780239222893,1.1431711,8.42124,3.8533418,-0.2799971,-0.83220303,-0.15935478,-10.33125,-34.40625,20.00625,0.0,0.8923868
1780239222894,1.1431711,8.5576315,3.8940198,-0.2799971,-0.83220303,-0.15935478,-10.33125,-34.40625,20.00625,139.92404,0.8923868
1780239222898,1.1431711,8.5576315,3.8940198,-0.2799971,-0.83220303,-0.15935478,-9.900001,-34.55625,20.475,0.0,0.8923868
1780239222912,1.1431711,8.5576315,3.8940198,-0.2280751,-0.76775867,-0.198449,-9.900001,-34.55625,20.475,0.0,0.8251385
1780239222912,1.2460624,8.766106,3.670291,-0.2280751,-0.76775867,-0.198449,-9.900001,-34.55625,20.475,0.0,0.8251385
1780239222917,1.2460624,8.766106,3.670291,-0.2280751,-0.76775867,-0.198449,-9.50625,-34.95,20.306252,0.0,0.8251385
1780239222931,1.2460624,8.766106,3.670291,-0.216469,-0.694457,-0.22990763,-9.50625,-34.95,20.306252,0.0,0.7628806
1780239222932,1.1874382,8.831908,3.3936207,-0.216469,-0.694457,-0.22990763,-9.50625,-34.95,20.306252,49.111362,0.7628806
1780239222938,1.1874382,8.831908,3.3936207,-0.216469,-0.694457,-0.22990763,-9.375,-34.631252,20.60625,0.0,0.7628806
1780239222950,1.1874382,8.831908,3.3936207,-0.23632154,-0.64192414,-0.24945475,-9.375,-34.631252,20.60625,0.0,0.7281086
1780239222951,1.0319048,8.793623,3.4737802,-0.23632154,-0.64192414,-0.24945475,-9.375,-34.631252,20.60625,24.649618,0.7281086
1780239222957,1.0319048,8.793623,3.4737802,-0.23632154,-0.64192414,-0.24945475,-9.075001,-34.350002,20.85,0.0,0.7281086
1780239222969,1.0319048,8.793623,3.4737802,-0.2048629,-0.6159631,-0.25495237,-9.075001,-34.350002,20.85,0.0,0.6974095
1780239222970,0.86919284,8.848659,3.798307,-0.2048629,-0.6159631,-0.25495237,-9.075001,-34.350002,20.85,157.54222,0.6974095
1780239222978,0.86919284,8.848659,3.798307,-0.2048629,-0.6159631,-0.25495237,-8.606251,-34.21875,20.962502,0.0,0.6974095
1780239222989,0.86919284,8.848659,3.798307,-0.13308835,-0.57412004,-0.2268534,-8.606251,-34.21875,20.962502,0.0,0.63149726
1780239222989,0.6475576,9.036494,3.7995033,-0.13308835,-0.57412004,-0.2268534,-8.606251,-34.21875,20.962502,0.0,0.63149726
1780239222998,0.6475576,9.036494,3.7995033,-0.13308835,-0.57412004,-0.2268534,-8.2875,-34.350002,21.337502,0.0,0.63149726
1780239223007,0.6475576,9.036494,3.7995033,-0.11079242,-0.5218926,-0.154468,-8.2875,-34.350002,21.337502,0.0,0.5554342
1780239223008,0.5518447,9.172886,3.482155,-0.11079242,-0.5218926,-0.154468,-8.2875,-34.350002,21.337502,2.950668,0.5554342
1780239223017,0.5518447,9.172886,3.482155,-0.11079242,-0.5218926,-0.154468,-7.5375004,-34.706253,21.54375,0.0,0.5554342
1780239223026,0.5518447,9.172886,3.482155,-0.16027105,-0.48615807,-0.07902836,-7.5375004,-34.706253,21.54375,0.0,0.5179594
1780239223027,0.69900334,9.11785,3.275176,-0.16027105,-0.48615807,-0.07902836,-7.5375004,-34.706253,21.54375,113.671295,0.5179594
1780239223037,0.69900334,9.11785,3.275176,-0.16027105,-0.48615807,-0.07902836,-7.1625004,-34.96875,21.5625,0.0,0.5179594
1780239223046,0.69900334,9.11785,3.275176,-0.21830153,-0.48249298,-0.043904647,-7.1625004,-34.96875,21.5625,0.0,0.5313969
1780239223046,1.0510473,9.012567,3.370889,-0.21830153,-0.48249298,-0.043904647,-7.1625004,-34.96875,21.5625,0.0,0.5313969
1780239223057,1.0510473,9.012567,3.370889,-0.21830153,-0.48249298,-0.043904647,-6.8625,-34.85625,21.337502,0.0,0.5313969
1780239223064,1.0510473,9.012567,3.370889,-0.23998661,-0.45072892,-0.07536328,-6.8625,-34.85625,21.337502,0.0,0.51616836
1780239223065,1.311865,8.863015,3.606582,-0.23998661,-0.45072892,-0.07536328,-6.8625,-34.85625,21.337502,21.330832,0.51616836
1780239223077,1.311865,8.863015,3.606582,-0.23998661,-0.45072892,-0.07536328,-6.6000004,-34.93125,21.393751,0.0,0.51616836
1780239223083,1.311865,8.863015,3.606582,-0.20272493,-0.3948364,-0.15171918,-6.6000004,-34.93125,21.393751,0.0,0.46905425
1780239223084,1.2807583,8.815159,3.8904305,-0.20272493,-0.3948364,-0.15171918,-6.6000004,-34.93125,21.393751,61.99455,0.46905425
1780239223097,1.2807583,8.815159,3.8904305,-0.20272493,-0.3948364,-0.15171918,-6.20625,-35.34375,21.300001,0.0,0.46905425
1780239223102,1.2807583,8.815159,3.8904305,-0.12697987,-0.3096232,-0.1996707,-6.20625,-35.34375,21.300001,0.0,0.38969067
1780239223103,1.0725827,8.852247,3.9837506,-0.12697987,-0.3096232,-0.1996707,-6.20625,-35.34375,21.300001,46.194073,0.38969067
1780239223118,1.0725827,8.852247,3.9837506,-0.12697987,-0.3096232,-0.1996707,-5.8500004,-35.625,21.09375,0.0,0.38969067
1780239223122,1.0725827,8.852247,3.9837506,-0.046958882,-0.27877542,-0.20577917,-5.8500004,-35.625,21.09375,0.0,0.34966546
1780239223122,0.9912268,8.952746,3.9119658,-0.046958882,-0.27877542,-0.20577917,-5.8500004,-35.625,21.09375,0.0,0.34966546
1780239223138,0.9912268,8.952746,3.9119658,-0.046958882,-0.27877542,-0.20577917,-5.5687504,-35.643753,21.1875,0.0,0.34966546
1780239223141,0.9912268,8.952746,3.9119658,0.006795676,-0.30992863,-0.18195613,-5.5687504,-35.643753,21.1875,0.0,0.35945788
1780239223141,1.102493,9.056833,3.6293137,0.006795676,-0.30992863,-0.18195613,-5.5687504,-35.643753,21.1875,0.0,0.35945788
1780239223157,1.102493,9.056833,3.6293137,0.006795676,-0.30992863,-0.18195613,-5.175,-35.5875,20.90625,0.0,0.35945788
1780239223160,1.102493,9.056833,3.6293137,-0.014889402,-0.40155572,-0.16821207,-5.175,-35.5875,20.90625,0.0,0.4356191
1780239223160,1.3944174,9.081959,3.222534,-0.014889402,-0.40155572,-0.16821207,-5.175,-35.5875,20.90625,0.0,0.4356191
1780239223178,1.3944174,9.081959,3.222534,-0.014889402,-0.40155572,-0.16821207,-5.0625,-35.71875,20.737501,0.0,0.4356191
1780239223179,1.3944174,9.081959,3.222534,-0.08880192,-0.44248247,-0.19631104,-5.0625,-35.71875,20.737501,0.0,0.49215296
1780239223180,1.5394822,9.104691,3.1423743,-0.08880192,-0.44248247,-0.19631104,-5.0625,-35.71875,20.737501,16.870499,0.49215296
1780239223198,1.5394822,9.104691,3.1423743,-0.08880192,-0.44248247,-0.19631104,-4.78125,-35.475002,20.71875,0.0,0.49215296
1780239223199,1.5394822,9.104691,3.1423743,-0.11476293,-0.4052208,-0.22929679,-4.78125,-35.475002,20.71875,0.0,0.4795325
1780239223199,1.4928222,9.243474,3.4247274,-0.11476293,-0.4052208,-0.22929679,-4.78125,-35.475002,20.71875,0.0,0.4795325
1780239223217,1.3824533,9.298808,3.6412778,-0.11476293,-0.4052208,-0.22929679,-4.78125,-35.475002,20.71875,6.203016,0.4795325
1780239223218,1.3824533,9.298808,3.6412778,-0.08605311,-0.29038152,-0.23937577,-4.78125,-35.475002,20.71875,0.0,0.38604057
1780239223218,1.3824533,9.298808,3.6412778,-0.08605311,-0.29038152,-0.23937577,-4.36875,-35.68125,20.60625,0.0,0.38604057
1780239223236,1.3824533,9.298808,3.6412778,-0.04665346,-0.13614258,-0.23693238,-4.36875,-35.68125,20.60625,0.0,0.27721524
1780239223237,1.1874382,9.349057,3.9370906,-0.04665346,-0.13614258,-0.23693238,-4.36875,-35.68125,20.60625,131.93607,0.27721524
1780239223238,1.1874382,9.349057,3.9370906,-0.04665346,-0.13614258,-0.23693238,-3.9750001,-35.5125,20.475,0.0,0.27721524
1780239223255,1.1874382,9.349057,3.9370906,-0.007864659,-0.059175827,-0.23021306,-3.9750001,-35.5125,20.475,0.0,0.237827
1780239223256,1.0426725,9.437592,4.45065,-0.007864659,-0.059175827,-0.23021306,-3.9750001,-35.5125,20.475,272.85385,0.237827
1780239223257,1.0426725,9.437592,4.45065,-0.007864659,-0.059175827,-0.23021306,-3.7500002,-35.4375,20.400002,0.0,0.237827
1780239223274,1.0426725,9.437592,4.45065,0.042835664,-0.15110834,-0.2396812,-3.7500002,-35.4375,20.400002,0.0,0.2865584
1780239223275,1.1539388,9.742677,4.831408,0.042835664,-0.15110834,-0.2396812,-3.7500002,-35.4375,20.400002,449.54297,0.2865584
1780239223280,1.1539388,9.742677,4.831408,0.042835664,-0.15110834,-0.2396812,-3.4125001,-35.5875,20.4375,0.0,0.2865584
1780239223317,1.1539388,9.742677,4.831408,0.041308545,-0.2824405,-0.25953373,-3.4125001,-35.5875,20.4375,0.0,0.38579372
1780239223318,1.317847,10.264611,4.575077,0.041308545,-0.2824405,-0.25953373,-3.4125001,-35.5875,20.4375,379.15134,0.38579372
1780239223318,1.317847,10.264611,4.575077,0.041308545,-0.2824405,-0.25953373,-3.3000002,-35.53125,20.5125,0.0,0.38579372
1780239223319,1.317847,10.264611,4.575077,-0.053067356,-0.30229303,-0.25617406,-3.3000002,-35.53125,20.5125,0.0,0.39977792
1780239223319,1.0773684,10.432407,4.406383,-0.053067356,-0.30229303,-0.25617406,-3.3000002,-35.53125,20.5125,0.0,0.39977792
1780239223320,1.0773684,10.432407,4.406383,-0.053067356,-0.30229303,-0.25617406,-2.8312502,-35.4,20.41875,0.0,0.39977792
1780239223332,1.0773684,10.432407,4.406383,-0.14530529,-0.33252996,-0.22349374,-2.8312502,-35.4,20.41875,0.0,0.42619157
1780239223333,0.6152545,10.356734,4.7341995,-0.14530529,-0.33252996,-0.22349374,-2.8312502,-35.4,20.41875,28.142927,0.42619157
1780239223338,0.6152545,10.356734,4.7341995,-0.14530529,-0.33252996,-0.22349374,-2.5687501,-35.11875,20.493752,0.0,0.42619157
1780239223350,0.6152545,10.356734,4.7341995,-0.16240901,-0.47699535,-0.16424155,-2.5687501,-35.11875,20.493752,0.0,0.52997786
1780239223351,0.36400816,10.17847,4.866104,-0.16240901,-0.47699535,-0.16424155,-2.5687501,-35.11875,20.493752,116.36066,0.52997786
1780239223357,0.36400816,10.17847,4.866104,-0.16240901,-0.47699535,-0.16424155,-2.1000001,-35.41875,20.831251,0.0,0.52997786
1780239223370,0.44177487,9.856635,4.4075794,-0.16240901,-0.47699535,-0.16424155,-2.1000001,-35.41875,20.831251,37.035942,0.52997786
1780239223371,0.44177487,9.856635,4.4075794,-0.19692189,-0.64192414,-0.110487,-2.1000001,-35.41875,20.831251,0.0,0.6804794
1780239223377,0.44177487,9.856635,4.4075794,-0.19692189,-0.64192414,-0.110487,-1.81875,-35.4375,20.98125,0.0,0.6804794
1780239223389,0.44177487,9.856635,4.4075794,-0.31970218,-0.70026004,-0.1156792,-1.81875,-35.4375,20.98125,0.0,0.7784313
1780239223390,0.53389853,9.49143,4.2074795,-0.31970218,-0.70026004,-0.1156792,-1.81875,-35.4375,20.98125,410.33456,0.7784313
1780239223397,0.53389853,9.49143,4.2074795,-0.31970218,-0.70026004,-0.1156792,-1.5,-35.2125,20.98125,0.0,0.7784313
1780239223408,0.53389853,9.49143,4.2074795,-0.42751673,-0.65291935,-0.14255647,-1.5,-35.2125,20.98125,0.0,0.79334515
1780239223409,0.27876383,8.865408,4.7688956,-0.42751673,-0.65291935,-0.14255647,-1.5,-35.2125,20.98125,325.39365,0.79334515
1780239223417,0.27876383,8.865408,4.7688956,-0.42751673,-0.65291935,-0.14255647,-1.125,-35.475002,20.98125,0.0,0.79334515
1780239223428,0.27876383,8.865408,4.7688956,-0.3639886,-0.544494,-0.16424155,-1.125,-35.475002,20.98125,0.0,0.6752308
1780239223429,0.2105684,8.4655075,5.683552,-0.3639886,-0.544494,-0.16424155,-1.125,-35.475002,20.98125,128.09563,0.6752308
1780239223437,0.2105684,8.4655075,5.683552,-0.3639886,-0.544494,-0.16424155,-0.54375005,-35.41875,21.1875,0.0,0.6752308
1780239223446,0.2105684,8.4655075,5.683552,-0.14377818,-0.45531029,-0.18073443,-0.54375005,-35.41875,21.1875,0.0,0.5105336
1780239223447,0.15553348,8.052446,6.1444693,-0.14377818,-0.45531029,-0.18073443,-0.54375005,-35.41875,21.1875,68.44139,0.5105336
1780239223457,0.15553348,8.052446,6.1444693,-0.14377818,-0.45531029,-0.18073443,0.09375,-35.5875,21.0375,0.0,0.5105336
1780239223465,0.15553348,8.052446,6.1444693,0.10605835,-0.4592808,-0.19356222,0.09375,-35.5875,21.0375,0.0,0.50956213
1780239223466,0.32452658,7.765308,5.992525,0.10605835,-0.4592808,-0.19356222,0.09375,-35.5875,21.0375,316.1268,0.50956213
1780239223478,0.32452658,7.765308,5.992525,0.10605835,-0.4592808,-0.19356222,0.3375,-35.5125,21.112501,0.0,0.50956213
1780239223484,0.32452658,7.765308,5.992525,0.30122405,-0.472414,-0.28060797,0.3375,-35.5125,21.112501,0.0,0.6266193
1780239223485,0.453739,7.7736826,5.496912,0.30122405,-0.472414,-0.28060797,0.3375,-35.5125,21.112501,282.42014,0.6266193
1780239223498,0.453739,7.7736826,5.496912,0.30122405,-0.472414,-0.28060797,0.91875005,-35.625,20.925001,0.0,0.6266193
1780239223503,0.453739,7.7736826,5.496912,0.4569901,-0.37223506,-0.33894387,0.91875005,-35.625,20.925001,0.0,0.6799131
1780239223504,0.16630118,8.095517,5.0156555,0.4569901,-0.37223506,-0.33894387,0.91875005,-35.625,20.925001,6.833076,0.6799131
1780239223517,0.16630118,8.095517,5.0156555,0.4569901,-0.37223506,-0.33894387,1.06875,-35.5125,21.018751,0.0,0.6799131
1780239223522,0.16630118,8.095517,5.0156555,0.5373165,-0.24029204,-0.2812188,1.06875,-35.5125,21.018751,0.0,0.65232915
1780239223523,-0.076570325,8.597113,4.21735,0.5373165,-0.24029204,-0.2812188,1.06875,-35.5125,21.018751,51.326748,0.65232915
1780239223538,-0.076570325,8.597113,4.21735,0.5373165,-0.24029204,-0.2812188,1.5,-35.456253,21.0375,0.0,0.65232915
1780239223541,-0.076570325,8.597113,4.21735,0.42125553,-0.21372019,-0.13950224,1.5,-35.456253,21.0375,0.0,0.49253774
1780239223542,-0.07058827,8.810373,3.3194432,0.42125553,-0.21372019,-0.13950224,1.5,-35.456253,21.0375,160.90964,0.49253774
1780239223557,-0.07058827,8.810373,3.3194432,0.42125553,-0.21372019,-0.13950224,1.6125001,-35.8125,21.31875,0.0,0.49253774
1780239223561,-0.07058827,8.810373,3.3194432,0.14942852,-0.28824356,-2.2906772E-4,1.6125001,-35.8125,21.31875,0.0,0.32467413
1780239223562,0.21535404,8.788837,2.7771697,0.14942852,-0.28824356,-2.2906772E-4,1.6125001,-35.8125,21.31875,195.52802,0.32467413
1780239223577,0.21535404,8.788837,2.7771697,0.14942852,-0.28824356,-2.2906772E-4,1.7437501,-35.2125,21.206251,0.0,0.32467413
1780239223579,0.21535404,8.788837,2.7771697,-0.16179816,-0.34230354,0.060550235,1.7437501,-35.2125,21.206251,0.0,0.38342756
1780239223580,0.69302124,8.721839,2.7999015,-0.16179816,-0.34230354,0.060550235,1.7437501,-35.2125,21.206251,33.27751,0.38342756
1780239223598,0.69302124,8.721839,2.7999015,-0.16179816,-0.34230354,0.060550235,1.66875,-35.381252,21.225,0.0,0.38342756
1780239223599,0.69302124,8.721839,2.7999015,-0.40338826,-0.37620556,0.0046577104,1.66875,-35.381252,21.225,0.0,0.55161077
1780239223600,1.061815,8.707481,3.423531,-0.40338826,-0.37620556,0.0046577104,1.66875,-35.381252,21.225,229.96806,0.55161077
1780239223618,1.061815,8.707481,3.423531,-0.5026509,-0.3911713,-0.09521582,1.66875,-35.381252,21.225,0.0,0.6440023
1780239223618,1.0773684,8.708678,4.2341,-0.5026509,-0.3911713,-0.09521582,1.66875,-35.381252,21.225,0.0,0.6440023
1780239223619,1.0773684,8.708678,4.2341,-0.5026509,-0.3911713,-0.09521582,1.95,-35.362503,21.35625,0.0,0.6440023
1780239223637,1.0773684,8.708678,4.2341,-0.472414,-0.38475743,-0.1672958,1.95,-35.362503,21.35625,0.0,0.63182366
1780239223638,0.8258229,8.650951,4.817051,-0.472414,-0.38475743,-0.1672958,1.95,-35.362503,21.35625,192.87013,0.63182366
1780239223639,0.8258229,8.650951,4.817051,-0.472414,-0.38475743,-0.1672958,2.2875001,-35.60625,21.45,0.0,0.63182366
1780239223656,0.8258229,8.650951,4.817051,-0.37895438,-0.3868954,-0.19661646,2.2875001,-35.60625,21.45,0.0,0.57615316
1780239223657,0.535095,8.587542,5.0599227,-0.37895438,-0.3868954,-0.19661646,2.2875001,-35.60625,21.45,45.69244,0.57615316
1780239223658,0.535095,8.587542,5.0599227,-0.37895438,-0.3868954,-0.19661646,2.49375,-35.550003,21.375,0.0,0.57615316
1780239223675,0.535095,8.587542,5.0599227,-0.29435202,-0.45836452,-0.20516832,2.49375,-35.550003,21.375,0.0,0.5820955
1780239223675,0.29940194,8.618649,5.052744,-0.29435202,-0.45836452,-0.20516832,2.49375,-35.550003,21.375,0.0,0.5820955
1780239223678,0.29940194,8.618649,5.052744,-0.29435202,-0.45836452,-0.20516832,2.8312502,-35.90625,20.8125,0.0,0.5820955
1780239223694,0.29940194,8.618649,5.052744,-0.22929679,-0.49165568,-0.19814359,2.8312502,-35.90625,20.8125,0.0,0.57754934
1780239223695,0.19740787,8.673683,4.9055853,-0.22929679,-0.49165568,-0.19814359,2.8312502,-35.90625,20.8125,28.275488,0.57754934
1780239223698,0.19740787,8.673683,4.9055853,-0.22929679,-0.49165568,-0.19814359,2.9625,-35.68125,20.5125,0.0,0.57754934
1780239223713,0.19740787,8.673683,4.9055853,-0.15874393,-0.43301436,-0.19264595,2.9625,-35.68125,20.5125,0.0,0.4998135
1780239223714,0.31256247,8.703893,4.8230333,-0.15874393,-0.43301436,-0.19264595,2.9625,-35.68125,20.5125,11.013984,0.4998135
1780239223717,0.31256247,8.703893,4.8230333,-0.15874393,-0.43301436,-0.19264595,3.3000002,-35.362503,20.15625,0.0,0.4998135
1780239223732,0.31256247,8.703893,4.8230333,-0.080860905,-0.3896442,-0.19661646,3.3000002,-35.362503,20.15625,0.0,0.44386837
1780239223733,0.33529428,8.56481,4.735396,-0.080860905,-0.3896442,-0.19661646,3.3000002,-35.362503,20.15625,163.29288,0.44386837
1780239223737,0.33529428,8.56481,4.735396,-0.080860905,-0.3896442,-0.19661646,3.9,-35.625,20.23125,0.0,0.44386837
1780239223751,0.33529428,8.56481,4.735396,-0.021303298,-0.4437042,-0.198449,3.9,-35.625,20.23125,0.0,0.48652774
1780239223752,0.50398827,8.571988,4.3872404,-0.021303298,-0.4437042,-0.198449,3.9,-35.625,20.23125,149.80602,0.48652774
1780239223758,0.50398827,8.571988,4.3872404,-0.021303298,-0.4437042,-0.198449,4.21875,-35.25,20.025002,0.0,0.48652774
1780239223770,0.50398827,8.571988,4.3872404,-0.057954133,-0.5060106,-0.1868429,4.21875,-35.25,20.025002,0.0,0.54250866
1780239223771,0.42861435,8.636594,3.9837506,-0.057954133,-0.5060106,-0.1868429,4.21875,-35.25,20.025002,121.90532,0.54250866
1780239223778,0.42861435,8.636594,3.9837506,-0.057954133,-0.5060106,-0.1868429,4.5,-35.625,19.66875,0.0,0.54250866
1780239223789,0.42861435,8.636594,3.9837506,-0.13858597,-0.5451048,-0.14805411,4.5,-35.625,19.66875,0.0,0.58160585
1780239223790,0.3173481,8.685647,4.1907296,-0.13858597,-0.5451048,-0.14805411,4.5,-35.625,19.66875,128.25584,0.58160585
1780239223798,0.3173481,8.685647,4.1907296,-0.13858597,-0.5451048,-0.14805411,4.7625003,-35.4,19.40625,0.0,0.58160585
1780239223838,0.3173481,8.685647,4.1907296,-0.15935478,-0.57381463,-0.109265305,4.7625003,-35.4,19.40625,0.0,0.6054718
1780239223838,0.36759737,8.56122,4.5248275,-0.15935478,-0.57381463,-0.109265305,4.7625003,-35.4,19.40625,0.0,0.6054718
1780239223839,0.36759737,8.56122,4.5248275,-0.15935478,-0.57381463,-0.109265305,5.08125,-35.568752,19.35,0.0,0.6054718
1780239223839,0.36759737,8.56122,4.5248275,-0.14774868,-0.62451494,-0.115373775,5.08125,-35.568752,19.35,0.0,0.6520427
1780239223840,0.6798607,8.622237,4.6468616,-0.14774868,-0.62451494,-0.115373775,5.08125,-35.568752,19.35,127.8839,0.6520427
1780239223840,0.6798607,8.622237,4.6468616,-0.14774868,-0.62451494,-0.115373775,5.3250003,-35.175003,19.331251,0.0,0.6520427
1780239223846,0.6798607,8.622237,4.6468616,-0.1416402,-0.6746044,-0.16760121,5.3250003,-35.175003,19.331251,0.0,0.70939636
1780239223847,0.86201435,8.779266,4.5894337,-0.1416402,-0.6746044,-0.16760121,5.3250003,-35.175003,19.331251,125.64277,0.70939636
1780239223858,0.86201435,8.779266,4.5894337,-0.1416402,-0.6746044,-0.16760121,5.71875,-35.11875,19.10625,0.0,0.70939636
1780239223866,0.86201435,8.779266,4.5894337,-0.1556897,-0.7219451,-0.22257747,5.71875,-35.11875,19.10625,0.0,0.7713525
1780239223866,0.7516454,8.87139,4.549952,-0.1556897,-0.7219451,-0.22257747,5.71875,-35.11875,19.10625,0.0,0.7713525
1780239223878,0.7516454,8.87139,4.549952,-0.1556897,-0.7219451,-0.22257747,6.1875005,-34.987503,18.975,0.0,0.7713525
1780239223885,0.7516454,8.87139,4.549952,-0.17584765,-0.7445465,-0.23815407,6.1875005,-34.987503,18.975,0.0,0.8012423
1780239223885,0.541077,8.908479,4.4685965,-0.17584765,-0.7445465,-0.23815407,6.1875005,-34.987503,18.975,0.0,0.8012423
1780239223898,0.541077,8.908479,4.4685965,-0.17584765,-0.7445465,-0.23815407,6.39375,-35.1375,19.03125,0.0,0.8012423
1780239223904,0.541077,8.908479,4.4685965,-0.2060846,-0.746379,-0.2268534,6.39375,-35.1375,19.03125,0.0,0.806855
1780239223904,0.4657031,8.919247,4.402794,-0.2060846,-0.746379,-0.2268534,6.39375,-35.1375,19.03125,0.0,0.806855
1780239223917,0.4657031,8.919247,4.402794,-0.2060846,-0.746379,-0.2268534,6.9750004,-35.325,18.975,0.0,0.806855
1780239223923,0.4657031,8.919247,4.402794,-0.23326729,-0.7775322,-0.21616358,6.9750004,-35.325,18.975,0.0,0.84005755
1780239223924,0.48963133,8.965906,4.4207397,-0.23326729,-0.7775322,-0.21616358,6.9750004,-35.325,18.975,50.871845,0.84005755
1780239223938,0.48963133,8.965906,4.4207397,-0.23326729,-0.7775322,-0.21616358,7.4062505,-34.987503,18.75,0.0,0.84005755
1780239223942,0.48963133,8.965906,4.4207397,-0.25495237,-0.8199861,-0.21372019,7.4062505,-34.987503,18.75,0.0,0.8849035
1780239223943,0.55423754,8.94796,4.465007,-0.25495237,-0.8199861,-0.21372019,7.4062505,-34.987503,18.75,6.9570537,0.8849035
1780239223958,0.55423754,8.94796,4.465007,-0.25495237,-0.8199861,-0.21372019,7.8750005,-35.006252,18.712502,0.0,0.8849035
1780239223961,0.55423754,8.94796,4.465007,-0.2552578,-0.88511765,-0.2228829,7.8750005,-35.006252,18.712502,0.0,0.9477692
1780239223962,0.58534425,8.775677,4.6301117,-0.2552578,-0.88511765,-0.2228829,7.8750005,-35.006252,18.712502,75.99068,0.9477692
1780239223978,0.58534425,8.775677,4.6301117,-0.2552578,-0.88511765,-0.2228829,8.231251,-34.800003,18.31875,0.0,0.9477692
1780239223980,0.58534425,8.775677,4.6301117,-0.20852798,-0.93642884,-0.25495237,8.231251,-34.800003,18.31875,0.0,0.99266493
1780239223981,0.71455663,8.5779705,4.7485566,-0.20852798,-0.93642884,-0.25495237,8.231251,-34.800003,18.31875,108.85715,0.99266493
1780239223997,0.71455663,8.5779705,4.7485566,-0.20852798,-0.93642884,-0.25495237,8.71875,-34.631252,18.31875,0.0,0.99266493
1780239223999,0.71455663,8.5779705,4.7485566,-0.121787675,-0.8465579,-0.3251998,8.71875,-34.631252,18.31875,0.0,0.9150123
1780239224000,0.88235337,8.562417,4.7569313,-0.121787675,-0.8465579,-0.3251998,8.71875,-34.631252,18.31875,4.1179657,0.9150123
1780239224018,0.88235337,8.562417,4.7569313,-0.121787675,-0.8465579,-0.3251998,9.243751,-34.912502,18.35625,0.0,0.9150123
1780239224019,0.88235337,8.562417,4.7569313,-0.051234815,-0.66177666,-0.42018655,9.243751,-34.912502,18.35625,0.0,0.7855763
1780239224019,0.8365906,8.607881,4.698307,-0.051234815,-0.66177666,-0.42018655,9.243751,-34.912502,18.35625,0.0,0.7855763
1780239224038,0.8365906,8.607881,4.698307,-0.017027367,-0.5270848,-0.4815767,9.243751,-34.912502,18.35625,0.0,0.71415997
1780239224039,0.8365906,8.607881,4.698307,-0.017027367,-0.5270848,-0.4815767,9.69375,-35.25,17.94375,0.0,0.71415997
1780239224039,0.5494519,8.673683,4.821837,-0.017027367,-0.5270848,-0.4815767,9.69375,-35.25,17.94375,0.0,0.71415997
1780239224057,0.5494519,8.673683,4.821837,6.8720314E-4,-0.55090785,-0.48218757,9.69375,-35.25,17.94375,0.0,0.7321235
1780239224058,0.33409786,8.725428,5.0048876,6.8720314E-4,-0.55090785,-0.48218757,9.69375,-35.25,17.94375,125.418655,0.7321235
1780239224059,0.33409786,8.725428,5.0048876,6.8720314E-4,-0.55090785,-0.48218757,10.2375,-35.287502,17.4375,0.0,0.7321235
1780239224076,0.33409786,8.725428,5.0048876,0.022983128,-0.6471163,-0.48004958,10.2375,-35.287502,17.4375,0.0,0.8060616
1780239224077,0.53988063,8.796016,5.0946183,0.022983128,-0.6471163,-0.48004958,10.2375,-35.287502,17.4375,114.74704,0.8060616
1780239224078,0.53988063,8.796016,5.0946183,0.022983128,-0.6471163,-0.48004958,10.51875,-35.287502,17.1,0.0,0.8060616
1780239224095,0.53988063,8.796016,5.0946183,0.06604786,-0.6706339,-0.55976516,10.51875,-35.287502,17.1,0.0,0.87604177
1780239224095,1.0450653,9.079565,4.9666023,0.06604786,-0.6706339,-0.55976516,10.51875,-35.287502,17.1,0.0,0.87604177
1780239224098,1.0450653,9.079565,4.9666023,0.06604786,-0.6706339,-0.55976516,10.950001,-35.362503,16.85625,0.0,0.87604177
1780239224114,1.0450653,9.079565,4.9666023,0.07734854,-0.59030753,-0.7043069,10.950001,-35.362503,16.85625,0.0,0.9222223
1780239224115,1.2376875,9.638589,4.6037908,0.07734854,-0.59030753,-0.7043069,10.950001,-35.362503,16.85625,351.2821,0.9222223
1780239224117,1.2376875,9.638589,4.6037908,0.07734854,-0.59030753,-0.7043069,11.493751,-35.34375,16.66875,0.0,0.9222223
1780239224133,1.2376875,9.638589,4.6037908,-0.022219568,-0.43454146,-0.7922689,11.493751,-35.34375,16.66875,0.0,0.903886
1780239224134,0.91106725,10.195219,4.0962133,-0.022219568,-0.43454146,-0.7922689,11.493751,-35.34375,16.66875,271.94022,0.903886
1780239224138,0.91106725,10.195219,4.0962133,-0.022219568,-0.43454146,-0.7922689,12.0375,-35.25,16.650002,0.0,0.903886
1780239224152,0.91106725,10.195219,4.0962133,-0.2152473,-0.22776967,-0.7626428,12.0375,-35.25,16.650002,0.0,0.82452077
1780239224153,0.23808585,10.0672035,4.3800616,-0.2152473,-0.22776967,-0.7626428,12.0375,-35.25,16.650002,43.682095,0.82452077
1780239224158,0.23808585,10.0672035,4.3800616,-0.2152473,-0.22776967,-0.7626428,12.712501,-35.2125,16.425001,0.0,0.82452077
1780239224171,0.23808585,10.0672035,4.3800616,-0.26716933,-0.13033953,-0.66643435,12.712501,-35.2125,16.425001,0.0,0.72972775
1780239224172,-0.06699903,9.410074,5.517251,-0.26716933,-0.13033953,-0.66643435,12.712501,-35.2125,16.425001,72.91794,0.72972775
1780239224178,-0.06699903,9.410074,5.517251,-0.26716933,-0.13033953,-0.66643435,13.06875,-34.875,16.10625,0.0,0.72972775
1780239224190,-0.06699903,9.410074,5.517251,-0.08788565,-0.2100551,-0.5934381,13.06875,-34.875,16.10625,0.0,0.6356224
1780239224190,0.31375888,8.891729,6.1935225,-0.08788565,-0.2100551,-0.5934381,13.06875,-34.875,16.10625,0.0,0.6356224
1780239224197,0.31375888,8.891729,6.1935225,-0.08788565,-0.2100551,-0.5934381,13.725,-34.5,16.331251,0.0,0.6356224
1780239224209,0.31375888,8.891729,6.1935225,0.110639706,-0.39147675,-0.59160554,13.725,-34.5,16.331251,0.0,0.71797794
1780239224210,0.9613165,8.652147,5.663213,0.110639706,-0.39147675,-0.59160554,13.725,-34.5,16.331251,455.348,0.71797794
1780239224217,0.9613165,8.652147,5.663213,0.110639706,-0.39147675,-0.59160554,14.212501,-33.91875,16.237501,0.0,0.71797794
1780239224228,0.9613165,8.652147,5.663213,0.12224581,-0.5848099,-0.6187883,14.212501,-33.91875,16.237501,0.0,0.8601428
1780239224229,1.0713863,8.435597,4.855336,0.12224581,-0.5848099,-0.6187883,14.212501,-33.91875,16.237501,593.45526,0.8601428
1780239224238,1.0713863,8.435597,4.855336,0.12224581,-0.5848099,-0.6187883,15.01875,-33.525,16.10625,0.0,0.8601428
1780239224247,1.0713863,8.435597,4.855336,0.028480753,-0.7020926,-0.6126798,15.01875,-33.525,16.10625,0.0,0.93226695
1780239224248,1.0283155,8.242975,4.5451665,0.028480753,-0.7020926,-0.6126798,15.01875,-33.525,16.10625,322.8731,0.93226695
1780239224258,1.0283155,8.242975,4.5451665,0.028480753,-0.7020926,-0.6126798,15.637501,-32.7,16.06875,0.0,0.93226695
1780239224266,1.0283155,8.242975,4.5451665,-0.0096972,-0.7127824,-0.6190937,15.637501,-32.7,16.06875,0.0,0.9441556
1780239224267,0.9242278,8.149654,4.7676992,-0.0096972,-0.7127824,-0.6190937,15.637501,-32.7,16.06875,17.905235,0.9441556
1780239224278,0.9242278,8.149654,4.7676992,-0.0096972,-0.7127824,-0.6190937,16.25625,-32.53125,15.806251,0.0,0.9441556
1780239224285,0.9242278,8.149654,4.7676992,0.08406785,-0.6666634,-0.6172612,16.25625,-32.53125,15.806251,0.0,0.91242474
1780239224286,0.68464637,8.236993,5.0587263,0.08406785,-0.6666634,-0.6172612,16.25625,-32.53125,15.806251,203.6495,0.91242474
1780239224297,0.68464637,8.236993,5.0587263,0.08406785,-0.6666634,-0.6172612,16.931252,-32.34375,15.731251,0.0,0.91242474
1780239224304,0.68464637,8.236993,5.0587263,0.20073968,-0.59091836,-0.5906893,16.931252,-32.34375,15.731251,0.0,0.859299
1780239224305,0.5075775,8.490632,4.776373,0.20073968,-0.59091836,-0.5906893,16.931252,-32.34375,15.731251,64.52274,0.859299
1780239224342,0.5075775,8.490632,4.776373,0.20073968,-0.59091836,-0.5906893,17.400002,-32.11875,15.675,0.0,0.859299
1780239224343,0.5075775,8.490632,4.776373,0.19951798,-0.498375,-0.52800107,17.400002,-32.11875,15.675,0.0,0.7529743
1780239224345,0.37477586,8.673683,4.2915273,0.19951798,-0.498375,-0.52800107,17.400002,-32.11875,15.675,35.28261,0.7529743
1780239224346,0.37477586,8.673683,4.2915273,0.19951798,-0.498375,-0.52800107,18.09375,-31.800001,15.731251,0.0,0.7529743
1780239224346,0.37477586,8.673683,4.2915273,0.10330954,-0.40583163,-0.4360686,18.09375,-31.800001,15.731251,0.0,0.6045891
1780239224347,0.32333016,8.743374,4.211368,0.10330954,-0.40583163,-0.4360686,18.09375,-31.800001,15.731251,25.589941,0.6045891
1780239224357,0.32333016,8.743374,4.211368,0.10330954,-0.40583163,-0.4360686,18.54375,-31.556252,15.375001,0.0,0.6045891
1780239224362,0.32333016,8.743374,4.211368,0.03642177,-0.3264215,-0.34871742,18.54375,-31.556252,15.375001,0.0,0.47904214
1780239224363,0.43818563,8.766106,4.6037908,0.03642177,-0.3264215,-0.34871742,18.54375,-31.556252,15.375001,201.04407,0.47904214
1780239224378,0.43818563,8.766106,4.6037908,0.03642177,-0.3264215,-0.34871742,18.75,-31.331251,15.468751,0.0,0.47904214
1780239224381,0.43818563,8.766106,4.6037908,0.06421532,-0.30504185,-0.29710084,18.75,-31.331251,15.468751,0.0,0.43063098
1780239224382,0.52552366,8.661719,5.061119,0.06421532,-0.30504185,-0.29710084,18.75,-31.331251,15.468751,134.5396,0.43063098
1780239224397,0.52552366,8.661719,5.061119,0.06421532,-0.30504185,-0.29710084,19.143751,-31.25625,15.168751,0.0,0.43063098
1780239224400,0.52552366,8.661719,5.061119,0.14942852,-0.3639886,-0.2720561,19.143751,-31.25625,15.168751,0.0,0.47836295
1780239224400,0.5099703,8.5372925,5.093422,0.14942852,-0.3639886,-0.2720561,19.143751,-31.25625,15.168751,0.0,0.47836295
1780239224417,0.5099703,8.5372925,5.093422,0.14942852,-0.3639886,-0.2720561,19.462502,-31.29375,15.187501,0.0,0.47836295
1780239224419,0.5099703,8.5372925,5.093422,0.2034885,-0.46447298,-0.26106083,19.462502,-31.29375,15.187501,0.0,0.57034683
1780239224419,0.46091747,8.521739,4.7823553,0.2034885,-0.46447298,-0.26106083,19.462502,-31.29375,15.187501,0.0,0.57034683
1780239224438,0.46091747,8.521739,4.7823553,0.2034885,-0.46447298,-0.26106083,19.6875,-30.91875,15.168751,0.0,0.57034683
1780239224438,0.46091747,8.521739,4.7823553,0.21051323,-0.5072323,-0.24456798,19.6875,-30.91875,15.168751,0.0,0.6011771
1780239224439,0.4968098,8.653344,4.389633,0.21051323,-0.5072323,-0.24456798,19.6875,-30.91875,15.168751,67.04807,0.6011771
1780239224457,0.5458627,8.801998,4.0148573,0.21051323,-0.5072323,-0.24456798,19.6875,-30.91875,15.168751,1.4424325,0.6011771
1780239224458,0.5458627,8.801998,4.0148573,0.17447324,-0.49898586,-0.21219307,19.6875,-30.91875,15.168751,0.0,0.5696084
1780239224458,0.5458627,8.801998,4.0148573,0.17447324,-0.49898586,-0.21219307,19.800001,-30.618752,14.83125,0.0,0.5696084
1780239224476,0.57577294,8.912068,3.7444685,0.17447324,-0.49898586,-0.21219307,19.800001,-30.618752,14.83125,0.3289117,0.5696084
1780239224477,0.57577294,8.912068,3.7444685,0.07887565,-0.4968479,-0.16332528,19.800001,-30.618752,14.83125,0.0,0.5289181
1780239224477,0.57577294,8.912068,3.7444685,0.07887565,-0.4968479,-0.16332528,19.7625,-30.13125,14.512501,0.0,0.5289181
1780239224495,0.57577294,8.912068,3.7444685,-0.01733279,-0.46538925,-0.13797513,19.7625,-30.13125,14.512501,0.0,0.4857208
1780239224496,0.6116653,8.831908,3.905984,-0.01733279,-0.46538925,-0.13797513,19.7625,-30.13125,14.512501,7.4405665,0.4857208
1780239224497,0.6116653,8.831908,3.905984,-0.01733279,-0.46538925,-0.13797513,20.081251,-29.625002,13.950001,0.0,0.4857208
1780239224514,0.6116653,8.831908,3.905984,-0.011835165,-0.40980217,-0.11506835,20.081251,-29.625002,13.950001,0.0,0.42581522
1780239224515,0.4322036,8.833105,4.314259,-0.011835165,-0.40980217,-0.11506835,20.081251,-29.625002,13.950001,163.44832,0.42581522
1780239224517,0.4322036,8.833105,4.314259,-0.011835165,-0.40980217,-0.11506835,20.41875,-29.362501,13.63125,0.0,0.42581522
1780239224533,0.4322036,8.833105,4.314259,0.045584477,-0.33986014,-0.06620057,20.41875,-29.362501,13.63125,0.0,0.34923542
1780239224534,0.3376871,8.793623,4.35733,0.045584477,-0.33986014,-0.06620057,20.41875,-29.362501,13.63125,20.102499,0.34923542
1780239224537,0.3376871,8.793623,4.35733,0.045584477,-0.33986014,-0.06620057,21.150002,-29.250002,13.275001,0.0,0.34923542
1780239224552,0.3376871,8.793623,4.35733,0.047722444,-0.30931777,-0.033825666,21.150002,-29.250002,13.275001,0.0,0.31480008
1780239224553,0.4645067,8.743374,4.240082,0.047722444,-0.30931777,-0.033825666,21.150002,-29.250002,13.275001,91.4421,0.31480008
1780239224557,0.4645067,8.743374,4.240082,0.047722444,-0.30931777,-0.033825666,21.31875,-28.875002,13.106251,0.0,0.31480008
1780239224571,0.4645067,8.743374,4.240082,0.0012980504,-0.3340571,-0.027106347,21.31875,-28.875002,13.106251,0.0,0.33515754
1780239224572,0.70378894,8.823533,4.24726,0.0012980504,-0.3340571,-0.027106347,21.31875,-28.875002,13.106251,89.46132,0.33515754
1780239224577,0.70378894,8.823533,4.24726,0.0012980504,-0.3340571,-0.027106347,21.28125,-28.85625,12.712501,0.0,0.33515754
1780239224591,0.70378894,8.823533,4.24726,-0.05092939,-0.3636832,-0.04756973,21.28125,-28.85625,12.712501,0.0,0.37030005
1780239224592,0.8282157,8.932407,4.4039903,-0.05092939,-0.3636832,-0.04756973,21.28125,-28.85625,12.712501,175.64296,0.37030005
1780239224597,0.8282157,8.932407,4.4039903,-0.05092939,-0.3636832,-0.04756973,21.337502,-28.931252,12.58125,0.0,0.37030005
1780239224610,0.8282157,8.932407,4.4039903,-0.048791423,-0.36246148,-0.057037864,21.337502,-28.931252,12.58125,0.0,0.37015164
1780239224610,0.70977104,8.965906,4.6002016,-0.048791423,-0.36246148,-0.057037864,21.337502,-28.931252,12.58125,0.0,0.37015164
1780239224617,0.70977104,8.965906,4.6002016,-0.048791423,-0.36246148,-0.057037864,21.618752,-28.987501,12.525001,0.0,0.37015164
1780239224629,0.70977104,8.965906,4.6002016,0.009544488,-0.32978117,-0.031687703,21.618752,-28.987501,12.525001,0.0,0.33143753
1780239224630,0.56141603,8.868998,4.6037908,0.009544488,-0.32978117,-0.031687703,21.618752,-28.987501,12.525001,93.67751,0.33143753
1780239224637,0.56141603,8.868998,4.6037908,0.009544488,-0.32978117,-0.031687703,22.06875,-29.2875,12.356251,0.0,0.33143753
1780239224648,0.56141603,8.868998,4.6037908,0.053220067,-0.27785915,-0.025273805,22.06875,-29.2875,12.356251,0.0,0.28403673
1780239224649,0.56141603,8.749356,4.4339004,0.053220067,-0.27785915,-0.025273805,22.06875,-29.2875,12.356251,183.6977,0.28403673
1780239224658,0.56141603,8.749356,4.4339004,0.053220067,-0.27785915,-0.025273805,21.993752,-29.75625,12.468751,0.0,0.28403673
1780239224667,0.56141603,8.749356,4.4339004,0.058717694,-0.24945475,-0.057343286,21.993752,-29.75625,12.468751,0.0,0.2626094
1780239224667,0.64037913,8.812766,4.3058844,0.058717694,-0.24945475,-0.057343286,21.993752,-29.75625,12.468751,0.0,0.2626094
1780239224678,0.64037913,8.812766,4.3058844,0.058717694,-0.24945475,-0.057343286,21.975,-29.531252,12.375001,0.0,0.2626094
1780239224687,0.64037913,8.812766,4.3058844,0.038559735,-0.23387815,-0.10162971,21.975,-29.531252,12.375001,0.0,0.25790393
1780239224688,0.60329044,8.927621,4.2915273,0.038559735,-0.23387815,-0.10162971,21.975,-29.531252,12.375001,94.56634,0.25790393
1780239224698,0.60329044,8.927621,4.2915273,0.038559735,-0.23387815,-0.10162971,21.862501,-29.587502,12.262501,0.0,0.25790393
1780239224705,0.60329044,8.927621,4.2915273,0.019928891,-0.24884391,-0.086969376,21.862501,-29.587502,12.262501,0.0,0.26435605
1780239224706,0.18903299,9.114262,4.331009,0.019928891,-0.24884391,-0.086969376,21.862501,-29.587502,12.262501,168.83754,0.26435605
1780239224717,0.18903299,9.114262,4.331009,0.019928891,-0.24884391,-0.086969376,21.91875,-29.550001,12.3,0.0,0.26435605
1780239224724,0.18903299,9.114262,4.331009,0.034283802,-0.21952324,0.01901262,21.91875,-29.550001,12.3,0.0,0.2229962
1780239224725,-0.3149553,9.238688,4.237689,0.034283802,-0.21952324,0.01901262,21.91875,-29.550001,12.3,76.37215,0.2229962
1780239224738,-0.3149553,9.238688,4.237689,0.034283802,-0.21952324,0.01901262,22.29375,-29.456251,12.243751,0.0,0.2229962
1780239224743,-0.3149553,9.238688,4.237689,0.08040277,-0.05612159,0.1427092,22.29375,-29.456251,12.243751,0.0,0.17314778
1780239224744,-0.35563326,9.108279,4.08066,0.08040277,-0.05612159,0.1427092,22.29375,-29.456251,12.243751,182.1575,0.17314778
1780239224758,-0.35563326,9.108279,4.08066,0.08040277,-0.05612159,0.1427092,22.48125,-29.400002,12.225,0.0,0.17314778
1780239224763,-0.35563326,9.108279,4.08066,0.08712209,0.06757498,0.19646375,22.48125,-29.400002,12.225,0.0,0.2252879
1780239224763,-0.09451649,8.859426,3.97059,0.08712209,0.06757498,0.19646375,22.48125,-29.400002,12.225,0.0,0.2252879
1780239224778,-0.09451649,8.859426,3.97059,0.08712209,0.06757498,0.19646375,22.3125,-29.118752,12.1125,0.0,0.2252879
1780239224781,-0.09451649,8.859426,3.97059,0.069712944,0.1298814,0.19951798,22.3125,-29.118752,12.1125,0.0,0.24806552
1780239224782,0.17706887,8.7015,4.1225343,0.069712944,0.1298814,0.19951798,22.3125,-29.118752,12.1125,78.658104,0.24806552
1780239224797,0.17706887,8.7015,4.1225343,0.069712944,0.1298814,0.19951798,22.462502,-28.725,11.925,0.0,0.24806552
1780239224800,0.40707895,8.570791,4.3154554,0.069712944,0.1298814,0.19951798,22.462502,-28.725,11.925,8.585294,0.24806552
1780239224801,0.40707895,8.570791,4.3154554,0.09689565,0.14118208,0.19646375,22.462502,-28.725,11.925,0.0,0.26061302
1780239224817,0.40707895,8.570791,4.3154554,0.09689565,0.14118208,0.19646375,22.40625,-28.462502,11.8125,0.0,0.26061302
1780239224819,0.40707895,8.570791,4.3154554,0.10972344,0.09903361,0.19218782,22.40625,-28.462502,11.8125,0.0,0.24245216
1780239224820,0.69541407,8.556435,4.087838,0.10972344,0.09903361,0.19218782,22.40625,-28.462502,11.8125,96.309654,0.24245216
1780239224871,0.69541407,8.556435,4.087838,0.10972344,0.09903361,0.19218782,22.48125,-28.81875,11.606251,0.0,0.24245216
1780239224871,0.69541407,8.556435,4.087838,0.07887565,0.079791926,0.17080817,22.48125,-28.81875,11.606251,0.0,0.20436132
1780239224872,0.8679964,8.48465,3.801896,0.07887565,0.079791926,0.17080817,22.48125,-28.81875,11.606251,170.29857,0.20436132
1780239224872,0.8679964,8.48465,3.801896,-0.008780929,0.08162446,0.13629529,22.48125,-28.81875,11.606251,0.0,0.15911022
1780239224872,0.89431745,8.530113,3.7109687,-0.008780929,0.08162446,0.13629529,22.48125,-28.81875,11.606251,0.0,0.15911022
1780239224873,0.89431745,8.530113,3.7109687,-0.008780929,0.08162446,0.13629529,22.48125,-28.987501,11.400001,0.0,0.15911022
1780239224877,0.89431745,8.530113,3.7109687,-0.090634465,0.08712209,0.11461022,22.48125,-28.987501,11.400001,0.0,0.17011869
1780239224877,0.6332007,8.786445,4.0268216,-0.090634465,0.08712209,0.11461022,22.48125,-28.987501,11.400001,0.0,0.17011869
1780239224878,0.6332007,8.786445,4.0268216,-0.090634465,0.08712209,0.11461022,22.143751,-28.743752,11.2875,0.0,0.17011869
1780239224896,0.6332007,8.786445,4.0268216,-0.09399412,0.09292514,0.12407835,22.143751,-28.743752,11.2875,0.0,0.1812882
1780239224896,0.55304116,9.008977,4.3357944,-0.09399412,0.09292514,0.12407835,22.143751,-28.743752,11.2875,0.0,0.1812882
1780239224898,0.55304116,9.008977,4.3357944,-0.09399412,0.09292514,0.12407835,22.0125,-28.612501,11.55,0.0,0.1812882
1780239224915,0.55304116,9.008977,4.3357944,-0.08513684,0.08284616,0.14912309,22.0125,-28.612501,11.55,0.0,0.19065535
1780239224915,0.55423754,9.206385,4.3298125,-0.08513684,0.08284616,0.14912309,22.0125,-28.612501,11.55,0.0,0.19065535
1780239224917,0.55423754,9.206385,4.3298125,-0.08513684,0.08284616,0.14912309,21.993752,-28.462502,11.212501,0.0,0.19065535
1780239224934,0.55423754,9.206385,4.3298125,-0.13797513,0.06696413,0.16836478,21.993752,-28.462502,11.212501,0.0,0.22774553
